,wrist_r__acc_x,wrist_r__acc_y,wrist_r__acc_z,wrist_r__gyro_x,wrist_r__gyro_y,wrist_r__gyro_z,wrist_r__press,wrist_l__acc_x,wrist_l__acc_y,wrist_l__acc_z,wrist_l__gyro_x,wrist_l__gyro_y,wrist_l__gyro_z,wrist_l__press,ankle_r__acc_x,ankle_r__acc_y,ankle_r__acc_z,ankle_r__gyro_x,ankle_r__gyro_y,ankle_r__gyro_z,ankle_r__press,ankle_l__acc_x,ankle_l__acc_y,ankle_l__acc_z,ankle_l__gyro_x,ankle_l__gyro_y,ankle_l__gyro_z,ankle_l__press,chest__acc_x,chest__acc_y,chest__acc_z,chest__gyro_x,chest__gyro_y,chest__gyro_z,chest__press
0,0.6201795489703336,1.0092978845771665,0.5053922727090778,-0.8420054985801254,1.6770234812833174,0.3098932932446707,-0.645128705453937,-0.2141141922385609,0.222357710092673,1.6157028303717933,0.043606877430916915,-0.9291678017077885,-0.8087351930509814,0.1261217125615948,-0.8770870009427234,0.7453482711805186,0.18459622024724512,-0.27903588289313797,-1.4831393739917547,-1.4711574111642425,-0.776111565585124,0.654969913199337,-0.7807632177232858,-1.3396277193426978,-0.0803144712706537,0.6117874216825505,0.8949940860210092,0.5072637190808553,1.0583698063294322,0.0074332224326175735,1.192032868823328,-0.25087286007524756,0.4749989769527204,0.20833096768259632,0.5336178357596332
1,0.8697099309027002,0.8491892604997312,1.8951294362891742,0.4937813180466734,-0.31727339910833635,0.023070900770320833,0.6654059275751488,0.19741446670617513,-0.32932154457754614,1.5262623486737215,0.6658551952004854,0.8356906281615349,1.0105803534729014,0.33068161859506173,-0.7716067951970964,-0.7435166696689838,-0.18866874733053465,-0.004119725760567825,0.5985484054212293,-2.470138010802825,-0.21251159737513922,-0.8773274620558088,-1.317474592729128,-0.5399716561644211,0.103943038770508,-0.555526670577449,-1.303033004098493,0.5067876951814932,-0.05008942703472635,1.130918545578149,-0.6288029542701712,-0.6359151414376869,2.5128668793140325,-0.11987278258417078,0.660413796772126
2,0.2717328076786122,-0.31330026631902713,-0.5594152423080041,-1.4467856008780509,0.5467435555623948,-0.2824815523705091,-0.04214294745409625,-1.6427024740463174,-2.1833636385121915,0.9204505915431208,0.7296060737679836,-0.6467434985493573,1.1779531691110252,-1.1761881244142385,0.40186208591149153,-0.05906051740697834,-1.0524101648483744,0.22870374089670387,1.8229991570090673,1.3352072689790728,-1.4329586823544915,-0.7212865992451177,-0.48713734957653876,0.46909205820267275,-0.7055310409949549,-0.5524772599730439,1.2668658817896015,0.3773536894019853,0.06173805498537341,-0.100693767772348,-1.3049972416634066,-0.725044406019509,0.3325367263531402,-1.0047587475452497,-0.48387307604680874
3,-0.48628746783992216,-1.272270210310728,0.12433702356578304,-2.19566753147621,2.211746748394393,0.1930545092725512,1.0914125801245795,0.9370155316427348,-0.9910489289350614,-1.061685294963685,-0.5483268896292092,0.8679818174271339,0.36614073293884597,0.2160720220409092,0.274131370386209,-0.009420995054254037,1.0035876115542566,-1.366160099474945,-0.4745084738870087,-0.07526984909109173,-0.23438488995726955,-0.14984857403542978,0.3906029270802832,-1.4685103181758783,-0.19671286035842825,-0.1479995445320401,-1.3459700278624696,0.35895721921678875,-0.46653568623177444,-1.3243411629297193,-2.2779030988111395,-0.6646949322710858,-0.5261296238262099,-0.6183482042956904,1.2698757362535154
4,-0.46063589551417,1.3598309859450606,-0.14928915988780694,0.083722574926138,1.6718099151753634,-0.31232429944239476,-0.34391389700332087,-0.8685716023087925,0.8773158360999467,2.3531470774716117,0.3151058067849712,-0.10550913614049658,-0.40518248784450783,0.5135306215546052,0.39550506400765634,0.2428836775865074,0.46881054331747873,-1.1488371540671656,0.23622253710574248,0.15047367771032075,0.29616354992599314,-0.8290113415262846,-0.9484938755172208,-0.4999724569202496,-0.6003984673040913,2.9299625278953547,1.393229021260115,-0.34181339076828066,-1.1771404703850517,-0.2288689557693547,-0.5277379603289736,-0.8988965252349901,0.868932551827194,-0.6191076144217911,-0.08378118881986193
5,-1.2703967851335525,-0.42158502175011586,-0.1315172606677094,-0.3797755621790647,-0.19043748992773268,-0.8583113594266999,-1.6765837735116036,-2.459238979248635,0.8572209429093756,-0.17538803324233126,-0.9546059107381057,0.1126131853475818,1.682439173487051,-0.619510961553705,0.9139516419634695,-0.5396945700699515,-0.899048938464859,-0.815986305796154,0.17169808736328052,-1.6135019302759566,1.9503407156904302,-0.49896725859798646,-0.03971219534969403,2.5483039192949835,-1.258351246184235,0.9001806365289887,-0.18614476960875048,0.3528670940027145,0.10429530763294542,-1.4140789837530758,1.57185539863993,-0.601503364583975,-0.24399126852477476,-0.42931866667474855,-1.549918742775333
6,0.20876200630564737,-0.9986794327671894,0.2667966803927565,0.7685540026558918,-0.7395895511789431,-1.3197497603841966,0.5703553122320043,1.5286261097247027,-1.6296920365226018,0.4642639206531514,0.255534820728691,-0.02813564666489672,0.17288641349116285,-1.648532435937035,-1.1404977315008118,-0.4046954465206942,-0.1334170652923296,-1.7139261051029684,-1.2089278390978915,0.18681002358325438,0.05693070615943928,0.419038128389011,0.504202567982337,1.1037354489077498,1.9048513210194724,0.18965458375117294,0.9943019789190023,-0.6222266459634926,0.7827272573072387,0.23159154268104773,-0.22349547974103748,0.9092571357580232,-1.3274095227687246,-0.28244682228194223,-0.24088783577376427
7,0.6040987984095426,0.7794312996135873,1.2598950774088922,-1.9024397417336643,-0.5451181095582104,-1.403249585911335,-0.06582668774251353,0.59725208422108,1.7485512364722084,-0.19536992801704214,0.9663220172945214,1.1552421099987817,-0.7626255208767055,-0.12285531536760935,1.0928103498144675,-0.6960919669550629,-0.8323407149468046,0.5400532782747992,-0.2921300256240121,0.7479425783074725,-0.21854125853527015,1.3904615006146592,0.7583253427933881,-0.5015821291859209,0.8563109169191321,-1.0543714617847817,0.4321704987128717,-0.7279120293003472,-0.4810814652327919,1.1253735352019785,-0.608217226962751,1.2405179329747558,-1.7964236022473952,0.005873397658586557,-0.3991782828721992
8,-0.32124940763813903,0.7627810053220178,0.24327594129164046,-0.7402022917562101,-1.3742073744875567,1.4173443468454603,-0.6949915227342505,0.9391413122982395,0.8028995857874551,-1.1892922317791836,-0.5567306217927482,0.3032595269291912,-0.13009160172413092,-2.7758770180507892,-1.1299217992251547,-0.2618996289237885,0.059844354230093884,-0.5485553045165791,-0.32635951392832097,0.6751289897615338,0.08077550975016169,1.363588740185628,-1.3544340477212993,0.19259141236577693,0.8303770094979664,1.3279808295535296,-0.4373975265277306,1.4522340192270888,2.0572305753754434,0.17285179019489721,-0.14944054665303777,-0.6272201567954977,-1.9349311540299132,0.006041252040925951,0.12918459462832788
9,0.5298902924203582,-1.2179130095979278,0.5565969040344263,-0.2244681620054776,1.4311887313087273,0.7880430265305965,-1.5003487540135858,-0.32121749161282553,0.8400333818437365,1.861609278332092,-0.42133236805123514,-0.9186914478787527,2.2362565534486474,-1.111542098160573,-0.6549617962197513,0.005700072885905155,0.6620280382529381,0.0752725244980796,-0.05417822091489255,-0.6774153366758647,0.11886949744970662,-0.18731507551571996,-0.643917908214188,0.2764333267867991,0.9401368785991863,0.714168104264448,-0.3319338628843079,0.26266336010364305,0.844146213278828,-0.4307545029054049,-0.6579128165827288,0.3104253890996434,-0.33885808994340794,-0.008189149270551274,-1.6382939798661267
10,-1.32751807054559,-0.5374260810552164,0.551339495279435,-0.7405470126457693,-0.4971455543425476,-1.2423764339769379,-0.8500086068820663,0.8797998406336098,1.0179289635386137,-1.2715874587463014,-0.8709358045646329,0.43890508633561987,-1.2963245321911951,0.7095532344009245,0.14173147628185687,0.3003041635497927,-0.8167476024000658,-0.1211111097873441,-0.4280027731229266,1.5525437594565474,-1.1487913814504223,0.0943143599701738,-2.640853678789693,-0.2547646569190191,0.00887502171398308,1.3599430459792035,-0.10428115959711015,1.0600121678093097,-0.07872552667634933,0.12068515837466003,-1.1750348179720063,-0.40165746182032447,-0.46499160359372554,-0.611938065300429,-0.5752472696414384
11,-0.43711496999140853,-0.037047359898718844,1.7536724016340632,-0.07585085523058502,1.6442414012475068,-0.687102856916224,2.073845181794679,-0.48875338189300876,0.20269357120480697,-0.530715812886701,-0.12808184366579617,1.1361602786166993,-0.42610172940699753,-0.3900431977128776,-0.2679379404282043,0.5395272860745731,-0.6003859312416382,1.0326753529778414,0.538105890016611,0.19017150154256868,-0.48747771224300795,-0.8320146516419947,0.6868283899955928,0.010338272640309624,-1.1346205375082623,-0.6353177020652792,0.2656803878206314,-0.6036790067332838,-1.0280067066906555,-0.2656788660875237,0.39487752375095925,-0.10374463216346227,1.3922837610031151,-2.006620773318198,0.6045866527045504
12,-2.3398771271800496,2.0929745253621683,1.6029719942411769,0.07548193487327295,1.425796684780022,-0.4081376292593008,-1.6526146992772786,-0.4429920428421144,-2.0562976864910487,0.6462801430077709,-0.6041209302608304,0.7242943266150033,-0.8129206858452245,0.31717627500705325,0.8538475383205042,1.0110965075594183,-0.14957575829632658,1.4091539341042911,-0.396095756837943,-0.45709983853595265,1.3926641498906667,-0.809329157384415,-0.7097892735122431,1.0717408800056967,-0.9240321203317013,0.6489919094434199,0.3270640594643409,0.4306924106212254,-1.0674021783243675,-0.5435160291889857,-1.030883593058156,-0.11410574400057466,1.4897613811878923,-2.338553586331218,0.47176513728848796
13,0.26121698709434676,-2.6044169682302805,-0.6975275733138222,-1.1187001535647871,-0.61244061655997,0.5877110669453889,-0.7733727362704041,0.5292410713863192,-0.24273404033227153,-1.0994757928893484,0.7000057677944297,0.6243915856750172,0.3310697853313021,-0.1025359119835813,0.8780184181002295,0.5890875852286922,0.7323360746468335,0.5941090093467536,-0.8062242956428148,1.6699241792683923,-0.04706530618186833,-0.7988240527908391,1.623476407676702,-1.4521191035709524,-1.6810671007450149,-0.17925422150726186,-1.3123555553064952,-2.6866154030676963,-2.334771099043054,-0.5512103670305938,-0.15249816370105068,-1.265253196411376,1.8919006405508938,1.0301843445751615,0.07333053225413898
14,1.2672488765636258,-0.025862707919392703,0.43494321648411377,-0.5455460465955582,-0.29190564873369623,-0.3331835204732527,0.8756247769869231,-0.08307148908306036,-2.0202381114643644,1.375092658682369,-1.686033472838533,0.1556359230877595,1.0397824535651545,-0.7680679977261665,0.20997699452339633,-1.0002802167315683,0.46048356662741186,0.2579057683409979,0.5494742603195935,-0.7120946737413653,-0.3038160273469627,-0.40444472666710657,-0.3998060972879338,0.7871443130770912,1.225966440478733,-0.5732363164826783,1.318511946866634,-1.6063202482260455,0.604912010361753,0.17238400449400143,-0.47455174955412266,-0.6513258266326478,0.6983184402442946,0.1713199058273872,0.6172083473356071
15,0.05948365018147158,-1.3626998899305727,-0.2599989912322267,-0.7901722624951969,-0.7475343608545091,2.38576723407809,1.1462366172745533,-0.061276122371359334,-1.7703451934723293,0.47582037971052843,0.1333690352207489,-1.4009832169572443,0.9944320768064697,0.20545972877365487,-1.38912533083417,-1.4050320071014255,0.6270246441496186,0.14575480862437337,-1.1566095881074494,-1.0944184477626262,-0.8416946116369873,-0.7024618653350679,-0.24298453246984342,0.09628782823507172,0.14155746767266436,-0.15224242661146525,-0.20970764326825922,-0.6916111075578958,-0.17954421296540765,-0.4170139478606899,0.5702645311555997,-0.28737776660255526,0.5334139426539918,1.688510571019251,0.020131362164906574
16,-0.23758069799217793,0.4327865722496081,1.0673804214845295,1.0210372493396724,-0.7895056319665154,-0.9945530549914482,-0.6805559446896585,-1.5536707757320394,0.6672668628372393,-1.0040219811578615,-0.4799815455742891,1.4058194476649997,1.0515904905011642,0.023776553268084647,-0.032286234314492644,-0.13708005814254673,-0.9887890348184004,0.6218867886787356,0.6653933088019974,-0.8422395051448236,0.6670725692687873,-0.004621285830876123,0.9976169863792304,0.8646415619206607,1.4373246648765445,0.9716041840720157,-0.5401619110855405,0.45203267896405225,0.09803014497669672,-1.3054373830806179,0.7918573538443356,0.14518018317790132,-0.45329997689872076,1.8368939465283505,0.4777217709844577
17,-0.1997621350269303,0.38751260988121167,-1.606338850870669,0.2604161715269922,1.035561988027434,-2.5828570055923916,-1.4883998814276513,-0.32822271302869593,1.0848654728879106,-0.6907130767318634,-0.3406769595614391,1.0187425128585847,-0.3704015858816225,-0.840689059500109,-2.269728937910071,-1.0944097625558922,0.09871617286036205,-0.8088473518670222,0.6806414916211802,-0.18038672338710007,0.8906392754980224,1.0694187660081744,-0.2737796126254269,0.5766174929772441,-0.8057029844142468,0.5569230366300156,0.10989466443711152,-1.5327333253399125,0.9397662174191257,-0.6954345742726229,-0.029605262615163903,-0.11927662796642939,-0.8688657701656187,0.41606382871185266,1.9706273297841195
18,-1.181580471518377,1.5769845580803863,1.1232438700416219,-0.7469135595092836,0.9776620009016475,-0.25630832817965,1.2167432844327681,0.2901123938669089,-0.6117328879330199,-0.46787406779729,0.3768052961172267,0.6899514798459804,-0.9146557745100655,0.13853530707243422,-0.5571161726705671,0.613442813976751,-0.16687702938483967,1.347503739224845,1.8355345274850523,-2.083741971689703,0.050351670050713435,-0.7767149534867769,-0.29908595775633323,-0.7308483458194301,1.0567886922104364,-0.10368049332783624,0.976260497138318,-1.5484136894527007,-0.8474490606461107,-0.3848385428234009,-0.7939819991427343,0.9592780515159154,0.451966863824654,-1.7259553066509554,-0.5045283389099212
19,-0.24230163961593815,1.4820429902936343,-0.9222825999397718,0.6273700924345584,-0.1774818368958578,0.13200769237114715,-1.0325607636327752,1.6289181674279816,0.207011023984814,0.5619688818561097,0.5350406892599616,-0.9837680708724128,-0.3631971554840654,0.05544436287904893,0.754792678422297,0.46394208275657756,1.7834877204878048,1.704423530647769,-0.459854502494852,-1.2306686512521234,-0.4819040455671952,0.06071627024060456,-0.3579529102596411,0.5416118558403764,-0.6910262954575153,-2.103058798271531,0.07765006147241746,0.6245235801307675,-1.048012094526007,0.1926306926915042,-0.5671691707932035,0.9337375021318451,0.42375372473675266,1.000278631604782,0.8757624732454177
20,-2.250613064061457,0.4254057089941051,0.2760131072527682,1.3126405336968494,2.866710626193259,0.4971012014343647,-0.03171618268174742,-1.5087891312412585,-0.42747502919044916,-0.3707602167940944,-0.35007502071775193,0.4060654380178635,-0.4171935369513014,0.5988488071927384,0.6477956518731258,-0.4618216996464831,-0.3767687315045574,2.851197690209094,0.6047389696920406,1.0992579276105472,-0.8228107587752409,-0.2923301751099677,1.8287743666567602,-0.8448771723245133,0.2591065955916913,0.6766293676071916,-1.5139190094293677,-0.42185272954601255,0.22467929030884812,1.8112535572233284,-0.23057637471104536,0.45544943658906467,-2.6467355784314606,-0.9355806535179729,0.09543875235673852
21,0.0697212846470097,0.22422769090349787,0.7699750826271127,-1.4021595704785588,0.15320446300872675,-0.9451146839183582,-2.0521666020288802,0.4154635788126329,-0.06961432592820528,-0.16175555223938454,0.44244517601188404,0.8294840372249788,0.4560835237562118,0.07426052986611689,-0.7845595366091669,-0.01651292788308067,-0.8496551461606858,0.6805845425443879,0.8965184815226969,0.5058184169654852,1.9348151638546345,0.8059596299275336,-0.15958006621094784,-0.8763893309498948,-1.0660285699449417,0.35708848862972997,0.7862268841576919,-0.9638723976896739,0.005285210600752053,-0.7027439387876857,0.9544075663182022,0.22236380809783907,-1.6123870970313832,0.5996343355078683,-0.2371307244149818
22,0.7712622802456485,-0.11053302272976631,-0.7155172997013295,1.148053063786276,-0.7553435368233513,0.6853162198103627,-1.2836883456573267,-1.1946749239807093,-0.5923397168430262,1.0591467977243298,0.7540141644478346,0.18925192667800597,-1.3770262966036586,-1.4860520021731296,-0.7375876772368358,0.5474945667142622,0.9458905188580894,-0.6686841090812148,0.02018964203094143,-0.33091165907321207,0.11412723436757338,1.1042017262077155,-1.6203746976636286,0.03642742415315508,-0.2742700961366859,-0.9229805082524076,0.730464976049251,2.2488143274744985,-0.148252196529622,0.31924423883621084,-0.4783180108099189,0.08587459357452126,0.2820992468200915,-1.413597924423654,-0.8965484735651617
23,-0.6029078916756273,-1.2454860587377052,0.8615473595602483,0.35667732522147333,0.6950100960480059,-0.7684462614256058,1.1735836355107059,0.9932165115760964,0.3351409628585563,1.9745394565941417,-0.4216280721873627,-1.5688170570628368,-1.2847113815949676,-0.927934546749224,-0.30907870822100586,0.20755779494319893,-1.3445369678961587,1.1217548199682803,2.4139747657319504,-0.9926693557489084,0.23330267279971983,-0.9422939596096817,-1.449318588818773,0.12092884917208507,-0.24312581100024727,-1.9517801557599317,1.2213701056537838,-0.5441248020088256,1.030185679558559,0.19871838438585343,-1.2103307711520899,-0.6352578229022547,-0.3607569454460412,-0.6195302833506898,-0.3865772274444696
24,1.3027308716742836,0.6551534559827581,0.42848264023421867,-0.9178116748200622,-0.2830105794445331,-1.4206361707433244,0.20822684962739513,-0.5412425574377207,-0.5389222715707745,-0.7901087922634771,-1.701124622442963,0.08156383169737084,1.5452399555340894,-1.3220498142801538,2.3035673168848554,0.37981975611563884,0.783687268768934,-1.5719274489982018,-1.2099564958888949,-0.012724218292655654,0.676486444819098,1.1361916498477207,-0.21451000301524173,-1.1952166559414272,0.05397279282297573,2.6243686726905846,-0.003197167301495561,0.7338099716805544,-2.5771988021405154,0.6279308863289946,0.8674809557020527,-2.063906865540023,1.0020737443852223,1.579255467098625,-0.7851180155372014
25,1.3702708004983777,-0.027945658195541637,0.42880332720061526,0.5564628503999185,2.6047304514372316,-0.016307472123788,-0.6988430167122138,0.8986142155308997,1.567056164596694,0.8391948409463509,-0.1425373384774405,-0.04672076761660846,0.005460334972839781,0.7270139345896262,0.6574576797977876,1.3707476287468157,-1.0262544728329517,0.7059270321149411,-1.1852353189032871,-0.026022541493187865,-0.4529630148891497,-1.412140073267403,1.6007748933943577,-0.0616547743460991,-0.7654640324667538,0.5473526426400455,-0.4670382497856211,-2.1443635086464448,-1.4352190215539558,1.6320270463501312,0.36755941319108515,-0.04735371470224093,0.3856766927919159,-0.17726963447053107,1.052367331254954
26,1.655409005818748,-1.691090679384596,0.6192812868099475,-1.312336044435674,-0.028487623071482025,0.3409853115802193,1.4610380621515036,-1.1867841757602777,-0.5929011558619597,-0.48563997416900534,0.0722860592353916,2.184020295876837,-0.5287300008476122,-0.10585473895836406,-1.041001670057563,0.14141212178714502,-1.012016912327499,-0.25368258445454844,-0.3741674452644602,-0.6497465537199725,-1.5697180002028996,1.1583756332434514,0.5981345851918936,0.7422195719084383,-0.28393987265878157,0.7265115247587185,0.6816334695365562,1.5298921373381047,-1.144891240759739,1.4436969724999233,-0.6527363348306254,2.0939751305765295,-1.4181661374157484,0.010910145741510903,0.2989746191421396
27,0.4957895183906944,0.038102725155569464,-0.1773191276529562,0.15726482135128833,0.4864468014616611,1.5022959651488494,0.007860970941771277,0.7332300054719094,0.5746711676428242,-0.13460115777313372,0.13139380050367144,0.9993042510044965,-0.3668351620490646,-2.012985361530353,0.9239748092963671,-0.29226829158438594,0.4026687496908098,-1.219721742254726,1.9432448857246605,-2.8344697207172405,-0.3674626196146613,-1.973409005082894,-1.1660777650459666,-0.024951837300016374,-0.029190517018442164,-1.2985692504202035,-0.5601412239940629,1.077707254343374,-1.007694027039831,-1.102147701237212,-0.35822227512156923,-1.077908390947722,-0.5824056091660187,0.9586603357768467,-1.2210631001152816
28,-0.4961622633611826,-1.4335109120548406,-1.2974334603304085,0.7342504209176272,-0.885960678496615,0.5202997520010773,0.49144096442810214,-2.1000834837484916,2.4016959920912067,-2.457241945450239,-1.038111618194592,1.0064795211989797,1.3932731382973884,-0.21788126157836793,0.9648669392916605,0.7563364877915802,-0.34077377299357775,-1.8020190435173313,1.5135878739147934,-0.21244069093533352,-0.7072998697597388,0.13751024075701024,1.9414854369548673,-0.3936062276951467,0.08349071751531527,0.13071615550036828,-1.6250582747292706,1.1351388841755141,0.6149800528238536,-0.05633828289695317,1.8383318675261382,0.552807598587434,0.39819555263659245,-1.441918282942459,-0.25722665618809326
29,1.3382909979336806,-1.1543031242253106,0.19921904060894666,1.0792146640736777,8.63584644865691e-05,2.4007863474187805,1.4414758686731268,0.2619920294735454,-0.3191901216355815,-0.02993477427865039,0.22362033672873993,-0.9173787300416846,-0.19758136710211446,-0.8938222712037945,0.45333496530670236,0.11577069979389751,-0.2839626646835527,0.010216968725439188,0.1648074604100326,0.9475884833024397,0.13054151553041893,-0.8943106195004779,-0.17109406495281942,-1.9120852480066934,-0.11587336430470031,0.7539703235660657,-1.663310747673721,-1.1439944203720724,-0.8987719683995146,0.03696577070651458,-1.275114296565741,0.20375005181765615,1.0101498102852837,1.6695924212937143,-0.49384261093374243
30,-0.5524564440091418,0.11417344452748218,0.9579030703559189,1.347738171409677,1.1836192540353745,-1.1260082114029017,-0.36572473917544474,0.0472173883867852,0.5062044399673464,1.9559784627279315,1.4963911197029782,-2.882393892993903,-2.1783996194018154,0.23426187103931087,-0.6559182129081171,-0.25885333632114227,0.026665935357333352,-0.11823942713063236,1.4208340293777324,-1.6300504263160456,0.21140392432029914,1.0034928308756,0.17476370968968474,-0.17746083485327704,-0.7682253447954893,0.033498706308155005,-0.09485035724042688,1.953820405157157,-1.2240639647005223,-0.5105331450414424,1.2899477081371986,1.1624573391041177,1.1962647477253654,-1.1431429988769874,-0.9695378895035627
31,1.1135472134161266,0.4417951794398907,-0.12581593423815535,1.1589823833861055,-0.7826906777824145,0.4153539698665643,0.13883665619910493,0.4893132879869979,0.7809484775337454,-0.93143756748331,0.21096325483761316,0.2237786681076102,-0.8270073651255512,0.8977645023991015,-0.3286375816967708,-0.5219528414204018,-0.7846682371317301,2.0035429977101105,-0.5263016824515276,0.9027701241209555,-0.45521850769389116,-1.6831835946687463,0.24323162426558548,0.28104849307647595,1.0118138302931257,0.6963694620632045,0.21109370763931495,-0.7100816129250251,1.3134855472642835,0.4946161995584646,-0.4779935560264742,0.5305115682877418,0.3048943632432049,0.14091813362780956,0.8777427257581308
32,1.0237233892541209,-0.723892566934107,1.169332894376368,1.1134319811065172,1.448072571256562,0.15881742076045793,-1.2591122618091217,-0.05161636852231675,1.397993834522583,-0.9855853187698526,-0.029646313520572978,-0.7313305333710545,-0.4295575171599833,-0.6241846556403765,-1.9749762395222548,-1.071268544789742,-3.7710514395591734,0.47947401664491457,-0.44009103953625767,0.40318759534067833,0.5518339573930207,1.1959502979021492,0.22156826397293183,1.244288022007117,1.5576971725253121,0.5335998117496371,0.005198062839545344,-0.505554300153769,-1.0384133897778975,0.60161745439792,-0.5672700546731798,0.6750930288262516,0.3755492785554025,1.0013340126549903,-0.6130366665505153
33,-0.2947976633453731,-1.9633132166537892,-2.199121129326628,-0.7252935497668604,1.464320982727255,-0.2817734524588413,0.9881678359280537,-0.6795823949275014,0.05765656707588631,1.026045542746003,0.4686791009066853,0.1890225313315949,2.381783166011189,1.3735774797424007,0.8294033861020755,-0.8583850711783978,0.334837654830694,-1.2857366185321972,-0.6836961165571653,1.374070196500776,1.3407789049221097,0.19170843386384637,0.8218873955880528,-0.10636636776865949,0.5215159592709941,1.457103654575831,-0.3467789005213681,0.12663523338506041,0.860740369115275,0.4919634198763938,0.28937620221841454,0.7542440438572392,-0.37628055993223963,0.7108580575470503,-0.26038140434818935
34,-0.10358599283079646,-0.7535158653900489,-2.206078377274779,-0.00924476357212109,1.515047234199324,-0.7158618053389131,-0.7427724579330598,0.008112778593010288,0.7674606843717307,-2.3314481493658232,-0.6934543431036362,-1.7145543984458664,-0.03374302335515362,-1.8121108524515637,0.5514440759244438,1.4627953440733734,1.5624815989455436,-0.6469275079871928,0.7487843154888986,-0.47827751089315124,-0.18803366287578924,0.8029084537788966,-0.035269859787564535,1.2929892031445105,0.5072855998408459,0.6484719904129204,-1.8395077057363718,-0.28401578589330334,0.3911522319561398,0.7057536784495156,-2.053948444242549,0.5441337842092642,0.28938912071261763,-0.637268245456,-1.8346764402996552
35,-0.15254097905227065,-0.8606439978293681,-0.6695859937392318,0.18844835895399153,0.6530793350746336,0.022323792898868756,-0.37268352064054017,-0.7990401215112226,-0.6607523002283052,1.0798852716931953,-0.8301733432171745,-0.516494403732147,0.8108268090306351,0.5095200225671934,1.1711378587760954,0.659856538796338,-1.237919099957584,-0.6540969293798492,0.24964116519395524,0.8373886000262059,0.9426716548023686,0.8073131561001037,1.4585117311040647,-1.2380051767628164,0.910617682925474,1.6002578246198764,0.8770348901372025,0.2880094704721438,0.02609567229314898,-1.104801974486082,1.0830272608594123,-0.6764701137468071,-0.4815668478453227,0.5495955553794688,0.46136333093576515
36,-1.2934626990669025,0.4084544052678617,1.309464953064777,-0.6941106819915441,1.229017794410333,-1.0290668329731447,0.05604478928856914,-1.3344747073074807,3.343942517440505,-1.5628731741489794,-0.24842432216747307,-0.2703273714552203,-0.4600551252786622,-1.3946192030344444,1.525467516244356,1.0357848824422486,1.0243529049198044,-0.4915428053807105,1.3104438494414519,-0.5023503550625922,-0.007423322192698348,-0.10953192909025211,0.15459710804823046,0.04941458951465014,-0.45393152374772266,0.7049772935138595,1.0682377534286465,-0.14671681785484597,-0.45883197944935794,0.01865788931716718,-0.9338471218501674,-0.609904941381961,-0.5179781620304807,-1.9520916951655813,-1.2125252042576995
37,0.24186747840821454,0.48483409424431684,-0.36005687897034394,-1.2566439327351944,-2.0930234305703173,-2.2808361279977913,-0.01982435446440456,-0.11088893752619117,1.1762458682112649,-0.8792362904900238,-0.05596200035891573,0.41906919706343115,0.9746690180818168,0.6982902206664848,-0.6370588166631017,0.31884646731302196,1.3113414039180702,0.5155520396212881,1.2238008903392381,1.8107370739266615,1.5388211249961719,1.582703470737631,0.06453133014972456,-1.849306894674204,0.3130001338367723,1.2416804616058088,-0.7732157366618997,0.8226834132890701,0.8952422372050658,-0.5264064725125608,0.3552892610220241,-1.1575630071669816,-0.4987793564341129,0.24137091350059195,0.5770249254026749
38,-0.12398951586908234,0.7348922896700535,-0.17283705760437934,-0.4952505866288446,-1.2626638339830896,0.2191783670605305,0.18255726349474607,-0.8980792529412706,-0.35859351650005233,-0.3343055201967675,-0.6931060029834359,-0.9416358823171319,0.4139925724279342,-1.5400403418246915,2.0221802399283955,0.847566755351151,1.0926081195548658,-0.6957595128309346,-0.6009913172513699,1.7545239570628561,-0.5904063612296614,-0.8260385662246416,1.7288087901928035,0.21272671000763305,1.4396536960231137,-2.136131378364627,0.8284159745082311,0.15512200394291006,-0.08194780383973063,0.175066466965835,0.034761957378183085,1.8705871728970547,0.6477348968819235,-1.218160596569049,0.41700519482291065
39,-0.6919787549932088,0.14157596302125172,-0.5305597282438645,-0.4646609256828875,0.82907020017015,0.44781061711255804,-2.6383189478317317,1.4716959780077312,-0.38982481792172713,-0.14043917518792176,-1.903495391612052,0.005645433849422525,-0.2524253537328464,-0.23806425558647484,-0.5664671484113465,-1.7819442138224284,1.4128812651913554,0.4216847397584763,-0.7170572548551186,1.2660939969122484,-1.6503172246963136,0.8081104004191408,0.5905153349924157,0.9804265357894699,-1.101416961744598,-0.4423809072068371,0.4204572545287304,-0.1181279163845778,-1.3193559702678157,1.0985702667469666,-0.6481316787735614,-0.3324919600265134,0.8698454726330082,-0.2886044572008833,-1.2396072792205484
40,0.26273821935724645,-1.2358292869220933,0.1188638355110193,0.06937858195772098,-0.6492721752350131,0.2720398269562911,0.4674552569869359,-0.12670483403192231,-1.369471054894696,0.4952708725579402,-0.0780433212650124,-1.1856806785031238,-0.23567383051457833,0.11819682264286177,-0.5126346247496554,0.9810475748778553,-1.3525353862581209,-0.21250080410421635,-0.07987546386013412,0.21675669810656428,-1.0992852631904124,1.169720276783979,-0.3575434356820794,0.9994089139549956,-0.6878817892528725,0.8109179517784291,0.7672679574156879,0.5765276477852525,0.5710184317629677,0.6857453135186077,1.5239529050660259,1.7231202549194686,-0.12311305873562146,-1.2422737634274832,0.5823440559782684
41,1.2852686022594044,1.436714356307004,-0.09494205698722462,-1.4172911206889929,-0.569323129162009,0.9021609267476841,0.3239694357079876,-2.001698376024282,-1.8269542834542494,0.15902517847791847,-0.6795363259330232,-1.9513782382684026,1.4754400650657873,-0.9275216501406677,-1.5631520830062753,0.6467634507028269,1.4998033751446338,-0.6308717344245036,-0.5531106919002068,0.8803568966165427,0.1775197126547008,0.5201221486021588,0.006480122591039395,-1.4676766513538504,-0.5679345032699046,-1.8231618667788823,1.0291800744257282,-0.46219234099181394,0.3898803649644438,-0.31813510310440446,-1.6592751273622173,-1.4393526281971496,-1.5052136757859784,-0.424107725338926,-2.4539606829364704
42,-0.9221876235998501,0.25209734069529705,-0.8583180128771435,-0.2136947887792898,2.0515713763371375,-0.331809470947543,-1.1456666033216936,1.1416285476631682,0.02476227720475024,-0.7708060430092362,-1.6081628564354393,-1.0589869094338662,0.045408838632455754,-1.4596425872647967,-0.35240415430993166,0.7938883477142094,-0.9656709671996557,0.7331247390721455,-1.7017713914853914,-1.9000913728193614,0.06654424055763725,-1.7199562700848288,0.9293764735310373,-0.7792682724394135,-0.8177604213810723,0.39438926135482866,1.5289402675633128,-0.009525834332690393,0.2833606393849613,0.12997489035965473,-0.44446841520749797,-1.4434139224575888,1.1957135634395353,-1.643253716311972,-0.30838161682269516
43,-0.17446466228465843,2.3541686366306176,1.4200367481677632,-0.4846903320327608,-0.20108299263301935,-0.5568318745976077,2.2458414829362336,-0.19830756665958593,1.2162958830320085,0.9542772239610136,0.11487732365175925,-0.36002913212561816,-1.7323652162658256,0.992820591611221,0.1552500822113738,0.317737794768112,-1.0207406641767052,-0.49479017815793863,-1.5814249985583735,0.703316365258758,2.218741949469353,-1.5282323221022576,-1.30015583912031,-1.1064681248406882,-1.6034580302515482,-0.7563034807126332,0.2615134191933232,0.4628518769671259,-0.7580086244265692,-1.8093266022893855,-0.6144657797851192,-0.5435541389060897,-0.4370621892026588,1.6403550230037225,0.7201913625282348
44,-0.8140798224287857,-0.8870504114519019,0.8082093085100399,-0.07553300797568606,-0.3429543500718426,-0.05925664654900948,-0.10342382367288,-0.4091811928049051,1.8820588671351608,-1.8067219980150713,0.8511108809183945,-0.2034632523203638,0.833369175876721,-0.5893950870533227,-0.01858274687905022,0.6884384468454475,-0.4854642632444169,-0.2605486482296576,-1.0303293407877478,-0.22015320649171857,1.1825736794357253,-0.3412669866876986,0.4516775795541719,-0.9344128217816079,0.6395524941322778,-0.4328803956554037,-0.07073688720494303,0.2933929173656165,0.8489775285053385,1.5397218144932947,-1.2184557895632406,0.26192429653744026,0.915081712643851,1.1263015366022677,-1.0175252099999197
45,0.42894085635826423,0.9390770933517351,-0.8500528473571121,-0.14230891958175051,-1.3248390551489235,-1.5170751755457086,0.2885539136885202,-1.0182571393525328,0.9590711074020114,-2.282800421572641,1.6625946232258395,0.6206222725005921,0.6811750321158796,2.1802202868299405,1.6899094380040738,1.6571425597438505,-0.25600631522035067,0.41093282170394296,0.5279947397716575,2.086635110624366,-0.6355295890086672,-0.471391156075322,1.2421982404846503,0.0610409474939393,-0.16446432675962494,0.9803300038458618,-0.5653750857955899,-1.1611216515890475,-2.0023878960788286,-0.19088380113121337,1.2356950475166608,1.7464022250507318,0.4748275457783739,0.5840800528848986,0.5562313950550193
46,-1.6245576841517317,0.2602708180274632,0.8049389050390621,-0.830940270056718,1.7111996430093008,0.8844201396103808,0.7593796555066616,-0.1945004493607399,2.357330821134546,1.5294139241423674,0.7530157782978151,-1.1862189105411487,-1.6076944711321615,-0.3059774151585578,-0.543325098864233,0.38231975543082464,-2.113727531839281,0.015206875136075857,0.008513772198959681,0.324089212515256,0.7096418047155358,-0.5438549345979551,-0.17398811239957254,-1.5284343010748234,2.7665073477536537,1.0447610875334974,-0.8837034130032884,0.4472590831478259,-0.7973894143104013,0.6124678066249467,0.20883222008613594,0.5546561325306617,0.5827830564514942,-1.9019149542238374,0.9562455731833354
47,-0.20579127516114282,0.6972757049872574,-0.6795617776073929,-1.6453265886421669,-2.3576252129561386,1.124531326419069,-0.26417993172784165,0.5669037813414886,-0.4538165012929788,0.08770618013690713,0.4757223391981241,0.4260160957954296,0.20389555646022023,-1.9402001543043261,1.2226941148696129,0.09120596347892719,-1.504228104495618,0.9308359861406217,-0.41015591376100663,1.566013151709713,-0.19675743944766522,0.9087957554054894,2.100683694540115,-0.49069522952195727,1.4863189348310788,0.5876576298010466,0.3810924396395329,-0.4948160641154328,-0.23509006538939908,-0.02936408098624109,-0.32393527469012556,-1.8243536131374007,-1.3988373667022571,0.27317860346408573,0.4414999764390418
48,1.5381649116466922,-0.37019345907712276,0.054481616238176614,0.21332750790761718,0.12043094330321405,-0.8089608374546231,0.44474908012907927,0.13946566437163546,0.8033318602077959,1.5357513243130443,-0.9622205595572493,-0.8320222674068981,-1.880907548288195,0.2656074082418583,1.1528822381285664,-1.3274811300635003,-1.784537278273853,0.7630290914022372,-1.7588422658100804,0.532415370952011,-1.6367116090717249,-0.15572782282714784,-1.2761663018196532,1.4822794150142955,0.5397654293208399,-0.7362286592116697,0.4795919861071337,1.5748571645313891,-2.5341711846839545,-0.7381560215841001,-1.333095851218495,-0.0636126392296471,1.092935353788061,-0.14257563128043324,-1.4580079977808433
49,-0.161528230524794,-0.5421637561778099,-0.21678853293212272,0.5563079190564185,-0.295420664369837,0.10921935176283862,1.4163072257141704,-0.49927538111762176,-0.5627699737862335,0.24318995586173123,0.5357067191808479,0.016484834574477344,0.11544861899626763,0.6035479004491688,1.2583379094598057,0.3917888657068188,-0.3399981350156502,1.5221837152448368,-0.2546383161215267,0.9846356824114648,-0.6840792991319629,-0.5779060355383907,0.5918076621455286,-0.3449263165513196,-0.6945508849846824,-0.4175585110415591,1.2651174585534701,-1.7785087334930378,1.5206508461367978,0.04272395473532288,-0.23978097293265305,-2.7978068485929595,0.2665221631952789,0.49463660486788663,0.15339731741159218
50,0.6100760264561267,0.5535567888230686,-0.5043264542677791,-1.3677562554252416,0.541145708924326,0.6024274731673452,1.5032205167988386,0.015194493420468401,-0.5321121390534482,0.07028998914830399,-1.3433633159962814,-0.6862758763915439,0.21349305155642492,-1.4044830197075457,1.3611483708136973,-0.8071643086630019,-0.14900118842934976,0.041491446547686585,-0.3917706341530564,-0.17536575790367048,0.07828852063063252,0.2054642806756424,-0.9674166876740878,-0.18377802340584273,0.33206262707819256,1.5207413129120109,-0.3714312528452359,-0.2947365326110887,-0.39135059972066744,-2.3330830046272983,1.4364838410153664,0.31881581781306856,-0.9651894799311627,-0.515544374419166,0.9745251891367614
51,-0.37691899041566684,0.5235701099744446,1.298018177074464,0.6504416884207433,0.4297115570362536,0.5969550187421764,0.8849632880876555,0.8324140025026031,-1.0619788609212553,-1.9173914455195487,-0.4877571933150626,-1.6393636920860286,0.2209094445076222,-0.41972597412366863,0.10572332445120823,-0.04206343780280882,0.274902848981964,0.4148722466864278,-0.10655721778697985,1.2647649646300192,-0.6753179853238525,-0.28509550701207853,0.5572415675883227,-1.6283840555720623,-2.543884761646668,0.8919768835433858,0.3368729098777788,1.965932518479909,-1.3014453706243927,0.06790160759504135,-0.46180166305585296,1.4075058340314732,-2.449428942200068,0.8670374546784901,0.7210931454821025
52,0.16136776068927672,0.6561476938364615,1.2883820606741034,0.84542300040667,-0.14479553953963642,1.0814121132585324,0.9110431793779112,2.548490107701159,0.4992709764002097,0.6438872964286526,0.1541363190457443,-0.3252370522870048,-0.2616124653161531,-0.2922508379332419,-2.0883370272537163,0.3641259982360742,1.4607575794597139,-0.21664909550916406,-1.3131441154462367,0.6888230376148028,-0.2954526806598219,0.48732245284629605,-0.21383441613670912,-0.7095486619759337,0.04584520171770379,1.3854563870997647,-1.4056233922964083,-0.5616343023314456,0.3285440643519776,-1.24180712211896,-0.4185653861554851,-0.6912916329714781,-0.5679085613636644,0.5822560581607513,1.0588112082966608
53,-0.3717560721357456,-0.48303750613166513,-0.5697444360591458,0.531192485094449,-0.4088844522180516,1.629927263687562,0.07921486815725051,-0.9983647338999395,-0.48665080792539467,-0.42003974151214374,-1.1118761863102893,-0.1197415941890633,0.3921378436938059,1.0749910576599917,-1.9422235786592217,0.09700196930366847,0.14894604756686894,-0.46449348636596677,0.08425284058659038,1.3231980821516947,-1.401108114510366,-0.7662194314195668,-0.5331652303786444,1.8621759428869344,0.3475850279136855,-0.44502121668844885,0.6740850685841693,-1.9307495119847284,0.030849862799423262,-1.7553659062668698,0.39819477197368636,-0.8728976614052177,-0.8197888941133535,-0.5379488220956078,-1.4227801715994073
54,0.32802404204448815,1.1487007255082569,0.28413310080797266,1.6121848549656022,-1.497422360247211,-1.502584677265823,-1.2336383724403688,0.620339207619031,-1.8260482653666017,0.5720477863852346,0.9995184589624606,-0.1848540376393507,1.1525145126106748,1.0441256010254056,2.287358856054068,-0.3186267811620217,-1.233747281559766,0.40113044024274513,0.3586875435909698,-2.1460412576849928,0.09580144547121143,1.6352176849746143,-0.5851729833657011,-0.9972869834478671,-0.2723761365826843,-0.29934043875665095,0.10570475866144843,0.09849257476907326,-1.3659499678526903,0.0802383649026127,-1.3073083047005358,0.3607811304012719,-0.6355174524947824,0.07160922056718981,0.8142699864613353
55,-0.5901868231561301,0.7641540565352956,-0.3162943013347397,0.7720685374788292,0.5982849627780754,-1.6934004275765904,-2.2487073382243046,-1.2473288357841037,-0.7605685206389865,1.1886115498365024,-1.1481183473108412,-0.7666918777308728,0.38033890698633177,-0.4693372723531618,-1.6067234048702743,-1.3135134548242848,0.016968399390245657,1.2283984456606392,-1.3857240122945425,-0.5648314211497077,-0.018769141931435786,-0.40864333951000004,1.951347446066242,0.22453198997485727,0.9177951185563399,1.4748349646380856,-0.5041250157215598,-1.902684175271551,-0.3152331261323517,-0.203200702759792,-2.102691905131123,1.63519164213146,-1.3789544181358722,0.10400555252728107,-1.8223309036255488
56,-0.7741802779548941,-0.835694844281892,0.24474873218450083,-1.4190407566463252,0.5434768782226458,0.12340521922539395,-1.4479191004363845,-0.2776285412825383,1.288406162409354,1.364854203573715,-0.5207958414045366,0.1926311493459676,-0.5454922644909417,-0.28228883974037694,1.415245356779487,-1.816511161678782,-0.07915671990483981,2.069159785746057,-0.6205409780135036,-0.7613901393720192,0.7511991527571299,-0.7252624594013356,-0.09266783287825965,0.9410613429898267,-0.25014330087350084,0.6140989441650814,-0.6715776082163167,-1.2793754920922875,0.13591706268269435,-0.16750625953407225,-1.2124725389107727,-0.47669565863900115,0.638824616485146,0.4928113948006668,-0.4875918625556783
57,-0.8166138840259443,1.503848110164686,0.014032016622894784,-0.25881079443941163,-1.6477474320947947,0.06457701856074359,-1.4813033833376557,-1.4056541212267069,2.298069212402251,0.17805840919822224,0.38465286099096246,0.7581804782547799,1.610437235207778,-0.8138532216134929,-0.21713100749606717,0.636522755114045,-0.3759581606805978,0.28202483649664906,-0.18900938414594293,2.31189156303152,0.28057096899105005,-1.102488485702803,-0.9433153130637802,2.5285800899216926,-0.4598884195982099,-1.3695033097243063,-0.6340380657737716,-0.19391824675052813,0.1260722400422691,0.9920794798604919,-0.6243494384353737,0.4014728771208886,0.3481524076681116,-0.45828243838170873,-1.504796562628053
58,-1.0954508456650598,-0.537150658758226,-1.437220368523729,0.9296534070191104,-0.9856258871058297,0.8428128508746607,2.8081544825507403,1.4980244065260029,0.1630357829587178,-1.2966635473864547,0.06950256479555363,-0.6236695749990488,0.4590703386653085,-0.3206782515066197,-1.5175088467006315,0.449874870504328,1.537292373000474,-1.9676982149399143,0.7823269434825995,0.8510084195097654,0.8122004073301031,-0.2855694146812962,-0.11120916209414533,1.1975194512032639,2.2107376612884093,-0.5514698412003951,1.6996408525865867,0.9158442231663647,-1.079678841280685,-0.2585396768038915,1.5378589534547147,-0.15431235294577073,1.2394256634058716,-1.4671450470346576,-0.3679197679742646
59,0.6810250149622714,2.260632857675511,-0.8717363471335176,0.3044125271773507,-0.6537043138679974,0.742644456731601,-2.4149002933322152,1.4947341335582618,-1.7115825772655473,-0.65755123235438,0.20541840812062775,0.3834824426825654,-0.8562957454027874,-0.6136939889340275,-1.1526933402916084,-1.7656531309570145,0.8139947469717229,1.194137459334632,0.9126562321289211,-1.1389073786026058,1.91105461063417,0.9027160269919041,0.6954352813736856,0.9926201944259381,-0.01569764970504515,-0.15030547409501135,-0.04945374031729798,0.2744479162840913,-0.2771008962727204,-0.5262310508884365,0.4780500765457043,1.5495207817140206,-0.16650357408624697,0.06523388580333785,-2.2165592774264784
60,-0.6142075308929494,-1.521712729785812,0.7090209355631433,-0.790561840390293,0.438390406290494,0.7954039176184391,-3.0977879040248504,0.025313853154250075,0.6014861357509462,2.090770269281718,0.5471649641793912,0.36349408899719987,1.3741638176396158,-0.21093149287106713,-0.21165786111473253,0.1984056538753461,0.7415652418235605,-0.1548332828674606,-1.1239826768900516,1.5764966415654253,0.05319384772666916,1.8099932805479333,-0.6005514197453213,0.9458060681889012,1.445766285128264,-1.2280799708944385,-0.03316131139931338,0.7728183190248104,-0.14082003277997246,-0.15675197907341712,-0.8986353446589228,1.1584067482678884,-1.6522929337958014,0.23683470343908658,-0.01351179217064933
61,1.3837621994959926,0.3635182669258623,0.4420808189505701,-0.19029331645798234,-0.053032849071090106,-0.4279689416852394,-0.015197165912595925,0.8507717789247039,0.0773926568162041,-0.06607238409043396,-0.211990975521135,0.775812521120731,0.6160790504778155,0.5190912475168767,-1.0688887537146337,0.7639099929274876,-0.6289128593298565,-0.18848994229971397,0.24827867751967245,-0.014807881762876915,-0.9619377142775735,0.12166062228440898,-0.30945609283262804,-1.4479028647300467,-0.22572578061632737,1.2388428509838922,-0.277895250842572,0.1655448654208904,0.7998487337787864,1.4347805981804906,0.366564981229969,0.3529628366459444,0.46677720358502534,-1.206799462642101,0.5641124128749346
62,0.6731747090549534,-1.3223983826267687,-1.7100348394197558,1.1830791881343206,-0.20240083495636904,0.30431370076845515,-1.223687174746007,-1.1607266295360699,0.017439037664537572,0.7697154527059771,-0.5359210001337998,-1.0772562134219306,-0.8820235773614776,0.7478294064929621,-0.19140029836986874,0.8800825228670516,0.5279917429847213,1.374329341820892,0.7902108873878985,0.9858131295780933,0.1528351304756528,0.16806376078979135,0.630630534650289,-1.261371102535456,-0.8169741531270652,-0.4259942476299573,0.14480948404399543,0.2206313620765304,0.8563324966697742,1.0333532830866088,0.8896270591688337,-1.382299773968574,-2.055766647205569,0.0819985277786967,0.18221941947083525
63,-1.9580026921317568,1.0230142423496518,-0.2924130510318087,1.7474177535006845,-0.601343155846024,1.3928884209282202,-0.10603106201821927,-0.2758041051181333,-0.4318819103935856,-0.2657941714785905,0.24261162863341013,-0.28445125241363534,-0.8773048551216224,-0.4505324881888648,-1.0917577542793122,-0.3549383196623463,0.5711125231232186,-0.8518672777429922,0.08919294856219538,-1.5858588097339166,-1.9404632474793482,2.142793520389903,-1.8661091356573998,-0.8550078541819817,0.6371428572791381,0.21489928267069902,0.3510447143743158,0.4845793800038645,-0.35461057698545695,1.1615663159289549,-0.6057871128623389,-1.1403780807629296,0.2995585747431167,-0.25864852300035374,-0.1143939099817635
64,-0.3133993643671117,-1.1193725764734308,0.41055100911005,-0.026578837811598092,0.8712632183141505,-0.5823668625230436,1.0431225234221924,-0.022339282194122866,1.4406970046273808,-1.7619345706815992,-2.5432980995606833,-0.29746791136483053,1.830836136742492,-0.2814043844953676,-1.0345811511469025,-1.1877880676032595,0.39755962116010735,0.2950008977821334,-1.1346426953665034,1.2330310411042098,-1.7228319253569029,0.6133047467702928,-1.027561796515604,0.33483151866434463,-0.372531222016633,0.3175401443435495,0.16669736078557965,-1.3823286816608726,-0.32318093772116757,-0.45492969670157474,0.45204788968741394,0.7994232061190004,0.6932697670854657,2.9808268023985174,-0.4352285112940346
65,1.0486508958616367,-0.5132296856506252,0.0693850830596316,-0.9772123392203038,-0.7834443389213991,-3.1371425289028836,0.428036948629961,-0.3601340044068253,-0.6445736609671507,-0.7577878988928741,-0.7756671848651717,1.2154846582303451,-1.3918949764923698,-2.3309508179216905,0.8961260721150135,0.013118563698905975,0.7147749621347556,-0.08532226712654802,0.5609164302706213,0.6694467581559126,-0.5349190265911478,-0.8199548931341962,-0.4520292757417257,-0.6375770881678388,0.5488573139412748,-1.126619779323539,0.7760100203619433,0.6574586549780769,2.960979522084782,-0.6263216387137457,-0.39986495862904936,0.770645182185056,-0.47987320957613333,0.8298751859916279,-1.72203983114075
66,2.4195062748561647,0.7236504245658824,-1.3807650009768726,0.723990740851321,0.055539163770582115,-0.01267908047786987,0.9571439176127262,0.34225041523163724,-0.20701079560170316,-0.2404050294178194,1.6608510924185855,-2.6422395861673373,-0.9116726258234477,0.8882528032616921,0.1846615279893462,0.591426195219347,-0.8753261150574528,0.0004808302020604513,-0.7587944437458879,0.22423733472594276,1.2288289000078285,-1.5310623738286537,0.4264922077625439,-0.2883288174079799,0.5149870409880466,-1.105866371193682,0.1566701827650971,-0.7503065882456275,0.9116558350488695,2.1391482516757248,-0.6033107335483885,1.0773018856874943,-1.609965757143438,1.058650598311899,-1.1416565367786082
67,-0.26278162883912876,-0.5098251022045549,0.07040400937904055,-1.6962015293455441,-1.312846868203426,0.4009823487360744,0.8844769659309768,0.30647353631935537,1.9793852255168165,0.8706983061495146,-0.6851315885621125,-0.547091781092692,-0.48589909517404567,-1.2699601104075113,-1.1043138888796742,0.9515744570599188,0.986580827556551,0.7379582479612934,-0.9129385244955124,-0.7345161658860779,1.342623903753648,-0.9615272470900653,-0.628651517268627,-0.5927709525101977,0.19547723832357272,-0.41633079944739554,0.3253072695899103,0.7554877764532272,0.6759044642701276,1.0284313070684763,-0.42991608109834434,-1.1233064621718174,4.020080039099967,-1.3016260901280992,1.2886110902385648
68,0.519847038061593,0.1663499745758282,0.15843060468264344,1.3452299217352897,-1.1285048109817264,1.599097552867055,-0.7336750702661657,-0.003155592730280602,1.1496273162426447,0.058135110186576945,-1.2676645085524079,-0.13344873569355134,0.03780298040116107,0.2449281248575799,0.8928994101391045,0.8508752270387663,0.0013523876692724123,0.6732406416525407,0.14909405305748508,0.9539703362641362,-0.8705320175784361,0.5121271870904429,-1.026771234111541,0.8457128320786635,0.6271732395486463,-0.026351660875832447,-0.33360379383556615,0.7705704467537684,-0.48032538381184203,0.38192850214593393,-0.99116378094906,0.5346078365325537,1.927917693270121,1.402697832145537,-1.0244156403727902
69,0.5525620032296715,-0.024959933375342302,0.12093222633938949,-0.33064550012642,-1.3860153023024848,-0.5241391521578644,0.12093664478492465,-2.42080117134215,-1.108567892631599,-0.23421039670120747,1.030404477110709,0.532094802543477,-0.5023029266641079,0.3521520963519333,-0.17560304130880972,-1.590164501024896,1.3545589048361697,-0.6961697032816749,1.4755217553762494,-0.9794198814045225,0.18971465931442275,1.512018888391752,-3.1394028995669303,-1.7840293959663844,0.34011273645078993,0.3438088647648301,-2.88173358896501,-1.5721259554385685,0.18197757121111138,-0.9318158741226098,-0.5393015864174041,-1.131658726800387,-0.07148889684596721,-0.667013781711927,-0.0970921489229577
70,-1.3868265341539099,-0.7082713461742615,-0.2018978449330583,0.14199933987079275,-0.15853597747590872,-1.6718672377955928,0.534022864201981,0.7958273517583446,0.5918980897900242,-1.6028623326391165,0.5620549941632006,-1.166314661414729,0.8328660658774566,-0.5978879088373916,0.3523271935750776,-0.29559572835126435,0.3607808857242736,-0.9328496128018965,0.4582264369728434,-0.07838054682741281,1.2719219227577112,-0.3971886586453743,1.3087469762422923,0.2981678685632515,-0.25500297034627495,-1.0617816652143712,2.1025515293553654,1.3247070033297086,-1.3077935100210427,0.07631570370937965,-1.0963290668978098,-0.6395898507780139,0.267698484263278,1.7882349534320576,0.0876048493454264
71,-0.0941569569939294,-0.2905822202458195,-0.9040067892356269,1.3440839547896823,1.521412245566831,0.48854227142306866,0.8294223938231076,1.5758613228364597,-1.1197059978581962,0.23023899790836114,-0.2519028869922699,0.2304568569818885,-1.1715731296782392,-0.018839934834215255,-1.402049243557633,0.6124649883601652,0.22274238771689195,0.7635025517440622,-0.8631032119279312,-0.30325924928511544,0.002712930114125484,0.6636009902385351,-0.999441081860717,0.6135954614711961,-1.2475787762879684,1.042019224208127,0.03455796450271799,-2.401106590402007,0.5805099075212704,-1.5129548831718438,0.8758636306533364,-1.417480080412163,-0.5605874919731139,0.9509444151951841,1.0539250417090928
72,0.7899258553090093,-1.3467571014439732,-1.6344850241373652,-0.3280537795319732,0.06537287933816098,-0.26036410680581973,1.9236716695118836,-0.5419661784848513,0.898732880532247,1.068873820174114,-0.8783424653331967,-1.9300620542986486,0.6235333914985094,-0.9294751359524072,-0.20875536421963728,-1.2149710036208654,0.28829166901983666,-1.2876601364010989,-1.7520921516947605,-0.4822116143658292,1.4427724819270344,0.17167987603333143,0.8949519376435232,0.41125948229876075,1.3868472591749526,0.4951321513108418,-0.4255844804336704,-0.5078690161837787,-0.7240918284564034,0.6869754885105053,-1.8034642301043553,0.7178077639615957,-0.2893317584342538,1.1717074497673983,0.08697670973644495
73,-0.3199147887242458,-1.2622133365726662,0.03269016820007131,1.080020361916924,-0.4160058457964232,0.3086657195249217,0.4270973662684472,1.1267531101576072,-0.09191099984606022,0.05485123086453471,0.8845916928823944,-1.120873708947944,3.065132332441054,-0.15693438362198703,-0.5083805732329975,0.08666348527415808,0.9604007581455171,-0.14963588232608016,0.7367893246927774,1.0674129949280189,1.5843015131809441,0.15235727897377208,-0.6541830163937971,-1.3966799500533114,0.6986821031656116,-1.5620408574801223,0.02123931992519039,-0.013314049586502329,0.3523333443182171,-0.2213286029456784,1.2836477185209458,-0.7915750649718823,-2.1552376546300436,-0.4713140462575295,0.49164298022983743
74,1.974308071726708,-2.1140058945324744,-0.120907553414118,0.36523724749482916,-0.50556882363466,-1.3476342552107619,-0.3879150398088207,-0.13472647057807516,-1.4184365909734262,-0.8831041748033286,-1.0027020512401423,-0.3599115355435061,-0.09153039795643937,-0.8531881494122132,0.9710775766361157,-1.0290167079749024,1.3856914716368924,1.0673945638566984,-1.6165731385205564,-1.346797501181258,-0.7909763884446077,-0.8904025595629613,-0.30542027420775614,-1.1684313436743752,0.5613450365871546,0.3555713604810742,0.7744458552322807,0.22608074504475492,-0.09215651635803239,-1.794990653049888,0.6269989608099261,-0.0013289545298992437,-1.6325069111773687,3.174018490878452,0.10861471508031012
75,0.36869340699267167,-0.05182204642225269,0.34200610721979935,-0.08898051673680567,0.2865053624910864,1.7710088713433219,1.0134345244340541,0.029039270273088377,0.5658153441487538,-0.4518885603666507,1.064999198757857,1.7474454802474455,-0.8202792013947043,-1.0337896824595152,-1.1946762166204696,1.4944765131721311,-1.332689273602124,-0.4445842167261619,-1.7997156507281358,0.15899778345877347,1.0001972503557186,0.29439159380538416,0.8920860421795038,-1.6497526768251485,0.8668445799285963,1.1522659181516055,0.28150374797066524,-1.5945585397967708,-0.45735007534876937,2.1801107420537456,1.1944438727880176,0.6995473042082507,-0.08822283046865793,-0.219087933308798,-0.7186972916396389
76,-0.25302512784063946,1.7697845282099496,-1.2204799180853219,-0.43044860006406177,-1.183420403420836,-0.21283886403225924,-0.05899134757746172,0.7098829614006676,0.5593568214877535,0.5020449674430624,-0.19970331520344284,-0.5774289003767499,-1.2157097446298033,-0.9542745313692187,1.4944507632347404,0.49764319345821184,1.4940163431570699,1.3544217601781792,0.06913563628080428,0.8103314403470914,0.33271557614383945,0.4928790484395219,0.7862597034596654,0.12367322161885601,0.88582067112239,-1.2372670328432103,0.02976051729578999,0.7678724602709174,-1.6259081644510411,-0.3702865788959567,0.45977496589473826,1.4549870446905275,0.7562682854388576,-0.7442741068621569,0.7558193160391388
77,0.6966107804787277,-0.7825637394762393,0.17372150699874603,-0.3691146743866825,0.3918802778105106,-2.1751479017763873,-1.4443210219227345,-0.0770987978435828,-1.00440242609276,0.04968399788046908,0.06571229019179432,-1.3988375428808795,0.6782589197463595,0.40175007056625983,1.3473028305271035,-0.0685792313290198,0.24877093631772318,-0.06763113358009509,-1.6948350366937206,-1.6515153184255265,-0.7934686321963109,1.032304161246649,1.0795617513659677,1.396111467150923,-1.003918007702072,0.3596318434725387,-0.8682074251267505,-1.067924207277778,0.4221613235836567,-0.2166831192374447,0.7696105843945437,-0.596418650434905,1.567622123708353,-1.1377190370482868,0.2569618707762477
78,0.4957006860201269,-0.6965273039323716,-0.3417204239607676,0.10031223712770167,0.8187730122932991,-0.26724885434905504,1.2528951240078041,0.8062098603625966,0.24829760098555467,-2.259077703876427,2.1677353046287275,-0.26841778055987864,0.4665884211569955,0.6882922328511665,-0.2513806576313315,-1.3667951783253767,-0.1440435912061863,0.947112912596672,0.16165821257268997,0.6077738691735834,-0.21709717276027818,0.010184868639442552,1.3253171651687308,0.8213804778677177,-1.4946280552011366,0.10051502805169113,-0.19356845800182604,-0.17870352285364988,1.3627018377156284,-0.029676775364440168,-0.01445931610010416,-1.8452536453745925,0.5523476038278381,-0.78953943609241,0.5037281378861577
79,-0.6026075257170824,0.5147283762793966,-0.9020663732969437,1.0202930280675147,-1.471182047803202,-0.30226161863156603,-0.4764423020522706,0.18199610568333688,-0.20844071949690637,-0.8698938758647827,1.0019692333803738,-1.3927931870211183,0.6449976616814299,1.1882276756029524,0.6391683027658505,-0.22036139711447156,0.30228312111945393,-1.052683129743291,-0.09082651522512927,0.41651013563851835,0.07284043679274425,0.5774737615601107,-0.8911508953480096,0.3799354368023989,0.3306240131427163,0.6662021451119999,-2.0884492311069986,-1.0564933510778483,-0.019604351901928826,0.6497590045663341,0.4654738806162594,1.8896918034934533,0.5102348441406114,-0.019203694697964145,-1.374698825051904
80,0.015883836586667918,0.6729085386546958,-0.9269808436642059,-0.1491412759233838,-0.3248453431586099,-0.6392385846762181,0.4208774863932441,0.8837452594060808,-1.0133106462726609,0.043336301255279326,-0.7213161817479935,0.7617911313786869,0.11577378987802521,-0.814499173323097,1.2869241821416266,1.0362224351884814,-0.5516921914912897,0.7093439305988909,1.4163778337748065,1.1917807975868016,-0.5664223996411397,1.2639855138754301,-0.5366892555660603,-1.3613171204891434,1.5705823950395585,0.931161310424553,-0.8475394203919749,0.2928965371665089,-1.135577246051069,0.3423981220764221,1.338584658400503,-0.6939185873280063,-0.42072570796229425,-0.2904344469347423,-0.8767010513540703
81,-0.17508441229454266,-0.9285126468978233,-0.45662280557827134,0.9233277883600974,-0.023203398800457593,0.9178083250485485,-1.6048705512079982,-0.27228903818310085,-0.7401522412311808,-0.7598898019098518,-0.061031857138498034,-0.8534832932355687,0.14000500329681861,-1.2573514516225215,-0.022053536405640676,0.6491175807920984,-0.9983750054725588,-0.0933098901811497,-0.2348302562517127,1.2425534617625515,0.2865283443763426,-0.10380153516338733,1.3875170815164843,-2.5069076633003293,1.6180109076681395,-0.5298405973852907,0.3855882342650536,-2.977178405315363,-1.2466632582956414,-0.17341234155,-0.33356413116201367,1.4177925855351963,-0.8816022604875465,1.9427878175452484,1.4393237278423519
82,0.6458431058780253,-1.702164290718093,0.030483038231904996,1.2186776193400342,1.1944546808184098,-1.6056444939683592,-0.7192592856396149,0.5310262183987834,0.6901363287503721,1.4463493775057237,1.1608374268094732,0.25592856893427657,0.7815635510605375,2.0602149004360673,-0.7504202173836388,1.3092394558345355,0.6225952106441213,-0.8190494196560791,0.3623751555124497,-0.6219667647639525,0.5978385785390644,-0.8142516896772601,-0.02453284051505699,1.6207141491042723,-1.567363098327657,0.3532312204420271,1.0018796841424369,-0.5404130547213568,0.21798944685960897,-0.04832794577138231,-0.044455597568586046,-0.23750967897701825,0.33859283773237503,0.0066514911529471496,-1.0097670967089822
83,-1.0684160407285297,0.10138165592674482,0.707342376765603,0.7304436390879306,0.949148669315274,0.7168277585048501,0.02261437771058194,0.732470371860364,0.17568525583939967,1.5757617395057184,0.2731775926407334,-2.13336007624753,0.31323321945845845,-0.30947507512113653,0.47769881509952,1.059387897178752,-0.5796456567258713,0.09872601572920955,-1.1895572397878749,-0.6243847779538054,-1.1290333865024222,-0.0414289232860507,1.7376864238333385,0.7380979223883216,0.4881100974493892,0.023821934071971022,2.4314357863831098,-2.24237533826681,0.30912726580505606,-0.6807543738852097,-0.9163226901558686,-0.3754198001993828,-0.17208166166531735,-0.7175459314595724,-1.0448389802985185
84,-0.038139399654160744,0.42756335283128966,1.4146489565742095,-0.05217662927129739,-0.8866804793005467,0.3635857089876228,-0.1671840161031983,-0.466603944214133,-0.9289743281541812,-0.8338955615538926,-0.004015685392243587,1.116777710702355,-0.09983711177127773,-0.10039964933869604,0.9325759248168611,-0.4184047570491588,-1.0048619615877505,-0.20974798505536021,0.1010438803544513,-1.068448071781272,0.10087958136951719,-0.8266278849662024,1.7921281047980415,0.48537133197841964,-0.241836389716213,-1.76046608621901,-0.28153033898503,-1.6814714880275643,-0.4063924478377298,-0.1998177645816591,-0.37575259752154594,-0.020506291250603683,0.8775736727539069,0.29770068390346777,-0.07731822160524429
85,0.41175790703641124,-1.5236317649290345,0.17420887694911272,-0.12850224603097055,0.9023185513953557,-0.34252717758183976,1.6832429302318208,1.130750981692682,1.3728694813047735,0.9586969468981115,1.1479077956720751,0.06651711835904196,-0.42779467097271595,-0.33735664608213384,-0.12065234024979145,-0.48292101955947414,1.5841578837671102,0.0037218082331376867,-0.7892028228061871,-0.752817116263078,1.4391422241167546,0.8072097020534454,-0.5798358578166027,-0.9381338808767177,1.0909900368970855,0.07587783853184452,-0.8901612961463208,0.03688815531152662,-0.2499983599638526,-0.3923208205417026,-0.58479132422917,0.78243582228028,-0.3929276555681727,1.0833076300582445,-0.5944504902505341
86,1.2694269205331066,-1.1462502019880925,-0.20146256244827196,-0.1448041635575827,-0.029041408490249995,0.30593706662851583,0.30365306125179886,0.30286349830990666,-0.6060110010382106,-0.9726143893103507,1.4130526959674667,-0.6636668860262466,-0.1804657667278543,2.134201232449848,-1.783558780097937,0.05152047906520587,0.04797806320613924,-1.1891943797870506,-0.8653776980998463,-1.6219578132996688,0.2910908171842552,0.7020116311013554,2.034666051647286,0.29377877825015897,0.16545473206870498,-0.6895510583856144,-0.21367072788541597,-1.6182025926209416,0.2240983926550891,-0.11049676097782857,-0.2489755317156557,0.11942568391172005,0.2913778723283011,-1.165077709214624,0.20339332737125065
87,1.3628033118014806,-1.247053972659234,1.2072904017197996,0.9352860382308478,0.42883146243280934,-0.8521631214169445,-2.4969183710686784,0.427826431161756,-0.6414060822422779,-0.5782297944696105,-0.4303343515276365,1.1599669032361088,-0.2309320097482768,-0.6473444097380822,-1.5428344059656534,0.6697489067128728,-0.07294253767902846,1.2878961940950575,0.025579379839849255,0.33245011847455486,-0.23922538072216756,-1.2649419869037573,-0.5406462636307853,-0.23581711465227806,-0.01560962388194383,0.3332798263130337,-0.15060605538136085,0.5720274032662346,-1.803217922817669,-0.7889820445928468,-0.45698049108359823,-0.6044412641483381,-0.16925354917202365,0.3571338318677879,0.39411932818890855
88,0.7179539723005479,-0.6840063720235979,0.046991564829019936,0.30009697976087557,0.07792722196252937,-0.9984703905392601,-0.3186595851607601,-0.8532272055346071,-0.25234575850692087,-0.7453061280829385,0.4825793142877083,1.1185126052440582,0.5392055830159782,-0.6400216781128076,0.6749926926453171,-1.37927388491491,0.85180849978941,-0.11215757347533464,-0.6693657160896275,0.11881664432113574,1.7984520690163726,-0.2195714589554594,0.011740629731988392,0.9820231209183735,0.9651922297420543,-1.2563841277909646,0.3679531798609882,-0.8587889798709556,2.2227410299363473,1.0376815097462981,0.13935210336302853,1.5138048306325051,-0.197392428034221,0.3185478015803591,-0.5745239554347605
89,0.5093681366979366,0.4036858755308374,0.21392859971822828,1.0005478501524763,0.9072041938562639,-1.6281947353294577,0.9080029154189572,-0.7708477535305434,-0.7531987716817534,0.6573071532874543,1.0250803304013547,0.5598688394170214,0.7094296498116971,-0.5104787582625481,0.727698077052409,-0.25225213825517917,0.558156834749337,1.1784683095298525,-0.32439741715090886,-0.5245650473880975,-2.067258500967151,-0.07688324665381574,1.0289196739701567,-0.6825743033196295,0.03473725606940131,0.285598997722875,-1.151836442916272,-0.8728936896440007,0.6474379348945769,2.1142793527024146,-0.8654066848292737,-0.24756530270818777,-1.4166727236808645,-0.04138027790304089,0.481948023795079
90,-0.6326368386813108,-0.8406509539645791,-1.190184589245255,-2.170356217316189,0.5264393400919146,0.669793018079131,0.35429204166747275,2.146506055877868,-0.03543936167770572,0.5834642568033811,1.3279043241132662,1.5524488898582678,-0.25559780833789447,0.34360289395026594,1.602942836274636,-2.268352897715703,-1.4050191722434149,0.9660681108533449,-0.13347446904674254,0.9395095215025351,-0.1917983688095146,-0.16021066998543312,-0.09964001179273357,0.3864387877834,0.577076595463406,1.803718750859689,0.7894602659295439,-0.07030285897019375,0.34859265977050397,1.6350660387539229,0.5427328879411848,-1.0817282572226279,0.05073482773265213,-0.8341677323660108,-0.4335926155247293
91,0.2586247069427801,-0.43622669653781004,0.03954101780581752,1.7314207359149631,-1.2547514179003678,1.0190995561760823,-0.3996437807267391,1.3990874238282598,1.2235769308627051,0.7999876002180845,0.5958370998809592,0.1729804287421926,0.22131990400567603,0.3075540736584247,0.7743097716309317,0.3755634896205894,-0.4034424552941065,-1.7962656275037552,1.8036029563371416,0.4452060227625797,1.4170849140363866,0.2835531745606884,0.34285233609068594,-0.8715471538501309,1.6777781535853185,0.060210589114465855,-1.3791932367274147,-1.6586660512713232,-2.4894162084279436,-2.92496215912735,-0.3369435881955333,-0.9304097377851932,-0.2594470098742898,0.2311930458958561,-1.3879958282450051
92,1.0664130342118587,-1.9519533020609459,0.11105076030318856,1.1009463317448611,-0.5162627420888196,-0.4471047439401743,-0.7627731444017332,0.1692151607163836,-1.923588452601178,0.25329956754735594,-0.5224274075175901,0.49358279049927106,0.8208300982499749,-0.05717911370991726,-0.7817488505676236,1.8998343023106914,0.30976835622689025,-0.5705527829894506,-0.160848704570794,0.06473601900097757,-0.30605355015270364,1.6653744514697415,-0.24677368310555403,-0.7973922488951842,-0.5092480800818744,-0.5348550426855629,1.9448860155046828,-0.9564849200005068,-0.6649286000416514,-1.2475310685538994,0.6244362831550015,-0.16775110016427336,1.3569134634073707,0.9082324860695847,0.8140792764140121
93,0.5405511659918548,-0.10759039027287924,1.462376572259127,-1.0093729248367271,1.115048967551712,1.3919462947309387,1.861735523578596,-0.7850420776574651,-0.19729186278878275,-0.8966186444411379,0.7134480514757484,-0.518336866133175,-0.18521241017427428,-0.3892384233587045,-0.5455795241006406,0.8716254238884746,-0.9280370681923936,0.6957023315761124,-2.308275405439973,2.129381209108325,-1.606576948960527,0.41810062095361644,-0.1502884155715579,0.06449453633501487,0.09074304357454788,0.5730493328945392,-0.28671187040983437,-0.9141687439635906,-1.0302104262556089,-0.585259694379723,-1.0323398051489083,-0.30516978833769914,0.39050315608122504,0.6327001884941093,0.17949334717707055
94,-0.5482366900490084,-1.4838184878934007,1.3530519549929327,-0.09220683888566479,-1.3409059154593899,-0.278884450983812,2.8205809730875293,-0.8787648514204154,-1.2988180897137747,-0.9666337645217548,0.49913714243944424,-0.9010925806407367,1.1847322493971475,0.7087124686383158,-1.4111068730241711,0.8293222491257983,0.12555900057915143,-0.83630750384351,-0.33880609527617656,-1.2646264888802343,1.0530556166227365,0.8606831112563353,-0.9260781644629191,-0.3403010278973552,-0.31149055663634634,0.8110980302671786,-0.013030788469109138,0.3099624537135186,-0.44859675698189494,-0.6343137124757204,1.055714355754953,-1.163948782247531,2.628128937218427,1.2927768884245383,-0.64034649388405
95,-0.5208162444572051,0.12796935765010697,0.11956936065852931,1.3722406167635635,-1.9514203818186442,-0.8881496316856548,1.0482416187765111,1.127146036127082,1.026225023321526,0.5319224085369919,0.3814055608617729,0.12138277369285998,-1.4649751479062025,-0.8418506089488487,0.9236915202018018,0.7916366258052959,0.593629134806822,-1.7759424149007899,1.2081566560519428,-0.8168000009687055,1.4111724517434157,-0.6298836078701996,-0.12497173071468073,0.30070630955946415,1.3146585933185415,1.180229829424278,0.25652107819313896,-1.815642216615401,-1.8743232550855162,-0.8126473266106322,0.4405771722438514,0.6641353480775278,-0.3458777276945596,-1.1383028847496344,-0.6404728762971672
96,-1.3693621675223844,0.7811409126948398,0.19492285166860943,0.1740972460290709,1.4436476491872066,-0.19238093605400092,-1.2242983478319427,-0.3355637605088522,-0.7245010261124324,-2.238704168759299,0.7909346727071027,-0.3397342436516518,1.0554935102858318,-0.30216433095869616,0.1075004848144448,0.18109756289699536,0.4532363993791305,-0.018992898727518633,0.1813750832056823,-0.28493866114274785,-0.8735204571987637,0.798204755349163,1.1678439701509278,0.673411379054126,-0.9651174715867035,0.46992466790605536,1.7260563414593908,-0.6462968578897702,-0.29276027703246693,-0.5140046643079621,-0.8527867228846535,-1.1224970727779013,-0.28328944618995544,0.3094113917030995,-0.5553992103981177
97,0.2886808772475132,-0.2278794058020679,-0.492411946093772,-0.1915418490254536,0.19473563275145916,-0.2560872251280153,-0.45523406616817186,0.05776242081391197,-0.7716289531110758,1.4717514933457023,0.7335277411854544,0.5202570982139975,-1.162720956378665,0.8900526304984324,-0.7189805443316686,-1.3939117079906913,1.9234076516653695,1.1938380603121177,-0.1990105715046263,0.07133054255170397,-0.28547048096381816,0.9042666111005415,-0.5676264986920085,0.9086325858811404,-2.113763955482162,0.2874296446720586,0.2777429499239781,-0.3296420960195423,0.33223171276358787,0.3848631963160977,-0.19213385671509992,1.0722846680048252,1.7992360305869837,0.9674149503537955,1.539699267084982
98,-0.38753892449109684,-0.11594782582856313,0.7288739280057722,0.7068376236109739,-0.049143610712374754,0.18775153981173834,0.010044590795328242,-1.9471646377212921,-0.5533512625824131,0.45797194810294944,0.6200716069456914,1.5896571893101672,1.1494319479263002,0.47500704613349926,1.4599044171919535,0.8042741100770584,-1.5440080181897637,-0.16654346868189937,0.8204913542540133,2.581776192548879,-0.8848218662513955,-1.457946853082392,-0.6113560075416625,1.7241600216726658,-0.013029956543424925,-1.5097641375627562,0.4004772025455132,0.9903179559078489,0.04889613981100668,1.9987431030578016,0.5967903481444337,0.7977753642195519,0.24176802211466447,-1.0726397686045608,-0.8501753059560868
99,-0.04767985729564989,-0.11706196320370228,-0.6113575212049661,0.33269453515830677,0.6538800668466263,-0.4428702567728225,1.4407061977821385,0.1150575721089202,0.16402747978156715,-1.329509863882542,-1.062791022958784,0.7558242951581731,0.42435925640104033,-0.3483372840586482,-0.7050899246995659,-0.2594191192072798,-1.2364510136526776,0.4365425243154544,-0.3264911609719751,1.0936228524784415,1.390098742328967,-0.040607144605579217,0.7539176387353096,1.0148045713931668,-1.831310751606165,0.6803013743434951,-0.7080457424199909,0.6918756041645716,-1.232337488936887,0.17406758397427632,-1.5768913392477462,-2.6771823259995537,2.038857772856899,-0.8507514360739457,-1.40645529582381
100,0.3348951398408601,0.7223354434203376,1.7634831481757969,-0.8893240051982227,-0.011136821219232703,0.1455734274127347,1.364732091883685,-0.4050528230185807,1.3002563288705615,2.251751909805868,-0.41024149294669615,-1.5009077776236053,0.7971384707469674,0.40044557329759867,-1.0790841445668435,-0.3093102974211724,1.7224405695868146,-0.5134674053953436,0.8905245805118409,-1.495678708287539,-1.7874245872547634,0.21439192279232974,-1.7560356792091585,-0.12007088775164251,-0.5290731386457641,1.3489546006470927,-0.6638491337921126,-0.9250190849092638,0.6119072251991335,-0.07537337588073166,-1.3239744165801832,-0.45951728172129463,-0.24647614758267058,-0.05928651628744889,1.9718601334853842
101,-0.43372979803159856,-1.8961755410242556,-0.42600070766404485,-0.13242919357911953,-0.0332095973986248,0.009205920081569586,0.3701520538673152,1.7262537607158208,1.143628752119717,0.7455256159916673,0.9180483696355358,-0.9233116694479595,0.3767699984216773,-0.2916581941969083,1.498934292681008,-1.0385521551293182,-0.38736143727090755,-1.8353798128266725,0.22158466896852808,1.3148252317250115,-0.5873227359630633,0.24228362708953377,-0.1473974596131935,-2.1941165942243437,0.23767486082976658,3.1881476664064388,0.17047008238399544,-0.09564690412439517,1.1125398223077194,1.1029918627191322,0.7334223044380517,-0.7499199933783062,0.9918553025814547,1.8128410278001745,-0.7131548319277797
102,0.6814116798696901,-1.5109310861927834,0.5495399576544259,-1.59720714736914,-1.0775826340570644,0.3195688852846848,0.747512575525441,1.1866964923667733,-0.2292685285435101,-0.08541467967713472,1.0169793887583165,0.834470666521884,-0.2757016860533076,0.23631069602612903,0.5268051248081829,0.652917857971706,-0.11238754811766473,-1.3978448218383555,0.9863481958324346,0.021773448363123924,0.06702476973255087,-1.0730123265318015,-0.8171127463220481,0.7241148665012207,0.9529109273783837,-0.1095968571709457,2.011830386896571,-0.9317899506492847,-0.8274914448182398,-0.6690232921792916,-1.163640981886285,1.7367154620565133,1.3357449947561593,0.5454360364082544,-0.29307175944023317
103,1.082963287479309,-1.6722330979991757,0.5485414491748798,0.43037931210301,-0.8662537045786805,0.8335702957874157,0.3955545322798671,-0.7713987986008563,1.0581951862752481,1.0179390684345648,-0.7232016574821428,2.2425430743031503,-1.3271383082122958,-0.5919312331190681,-0.742244774107247,-1.3464646580544115,-0.22679524676881194,-0.6085564148666162,1.2381320082356206,-1.40716821652539,0.19693336628932845,-0.2222387693151541,-0.4686365227792036,1.2222423982950934,0.002912475967422198,0.3042336330239456,-0.8325279655271643,-0.24733735663785705,-0.18655364013700035,-2.3660927608054854,0.13351488424954364,0.6815831000907951,-1.8378837955990908,-0.5681352140412532,-0.9350645598820271
104,-0.4551947181250834,0.656685063083723,-0.6578337441562494,0.925180483077223,1.1668654151614506,-1.6495920603790237,0.5173843157583033,-1.5392599583936861,2.2719410248150336,0.49892880123659167,1.5479472267544894,-0.5248400982437499,-0.5656037950855153,1.2075213565728204,2.343989421472405,1.6279077792412877,0.9663444933435156,2.1581168228034,0.2939422212471248,1.283829963182097,0.3530490052142774,-0.23340695311501822,-0.8140299749785648,-0.7072323586725746,-0.8643931217053864,1.0992049305790235,-0.4273361881046092,1.5273463583211802,1.4661317041174264,1.4102008956880518,0.4879913264211286,-0.46762652886147715,1.4321351714681978,-0.3318839231465527,-0.3172797302387174
105,-0.7017708031473966,-1.4533906220839705,0.4235879723331896,0.19441186616405193,-0.7432946847497778,-0.9582096083071694,1.2456705412300304,-0.8179180677403025,-0.09043129221594715,-0.37030488885075136,-0.019478345896148906,-0.6364182037697974,-0.18774331989445217,0.6380281751195734,2.292793289256999,-1.1124752569210097,0.7478319974003818,1.6602747161962343,-0.814369441109263,-1.1197905381172346,-0.8436034761713088,2.5673651121558763,0.30229012796919436,-0.6531811745747101,0.24812785498210826,1.6699058063710905,0.007265016347427237,-0.3932861196858387,0.9767533325528364,-0.21940056240523437,-0.14064081733968592,0.8083211802519696,-0.2413152329749732,0.8333400209750126,0.4860420538496662
106,-0.8494821747151169,0.25587671369723464,0.04252073109750802,-0.3075341555541364,0.012830745920470529,0.825282110108144,-0.8041651604980427,-1.3170858819986853,-0.46820250104855743,0.5315589634014294,0.6114451745404544,0.2941216302961627,-0.3419165993799246,2.289537863808226,-0.5527974856627945,-0.8494204150653285,-0.7074692296589532,0.7419370800872711,0.3641100701742359,-1.200425243472078,0.10496405111249336,-0.6224591091229136,0.8106282147989515,0.005286080452478998,0.8465407415391788,-0.7554438857219431,0.29843489721823657,0.3903322934557396,1.285027575868823,-1.061503112530726,0.2532175886073372,-2.0171548680137934,1.2931424398951956,1.146054336883608,0.4304953181182027
107,1.0612151657799176,0.05801207143893246,0.64462344987948,0.5730088617475516,0.9157806007525151,0.8718368972069331,0.5400807597370766,-1.6253706876114575,0.622456536399736,0.7470544668815745,0.2997895331696532,-0.5222886433700854,-1.704492049441054,0.021993674442477653,1.059509544111344,1.1658474438519275,0.1695140013346326,0.5674247585224979,0.46314363015524757,-1.741153905895648,-0.7750169802967731,-0.48283202127010477,-0.39468991497033534,-0.4557652675547721,-0.22850171356100824,0.565426430945708,-0.4813989445464416,2.0393224139661648,-0.06817676535680982,-0.08592246219621334,-0.6785031544546077,-0.42872460347987246,-1.4900452136145597,-1.2381284429467234,2.653868827453732
108,-0.30270596104443365,-1.4639733105688526,-0.30136097417224644,0.18277995017236814,-0.11288277345914996,-0.24669351488791327,-0.674514818972258,-0.005688575015417299,0.4064812854896447,1.489009397864222,1.0627083077855624,-1.3302750019253047,0.15705059118138992,0.4783986892927347,-1.5258300628278885,-0.22762045166190842,-0.6658161756747227,0.06930648214097622,0.8947956610613794,-0.5113750796495822,-0.48543391349365006,-0.7388560896047783,1.6326138835565915,0.390428338891513,-0.6951305122425572,-1.980315135025993,-1.6930154683439147,0.6772017813008394,-1.3084817451046762,-1.4191512456368653,-0.6989981402274101,-0.9385996517719576,1.921337035753766,-0.5902449877776155,0.6590425043561883
109,1.106394014065809,0.7641228493743432,0.8747598654394111,-1.7148885639373987,-0.6979963274260733,0.7798087597156445,-1.6602732079481115,-2.7824563996848206,-1.93482153947677,0.9447058582158108,1.6301379254194943,2.9905278397204436,-0.37611767687335423,-0.9344360325068004,1.071516565002878,0.18655681987470568,0.027121208245890274,0.08382247515882814,-1.6073155426314876,0.5780117203063946,-0.3049683714732348,2.2197313047024343,-0.551726781979244,0.24396429952410617,-0.4167666668237249,0.1940256918536725,0.9541382939570432,-0.6335338363799604,0.3923419610729608,0.5618800744636904,0.19870319068375164,-0.46793218780326423,-0.3383587643306826,-0.32837546345983637,-0.338903899033276
110,-0.782033155225263,0.39947052115837883,0.9890086880957413,-1.2142147997195225,1.3803847314001594,0.7721159457958641,-0.3707393340146216,-0.23327090579165874,-1.234772639389512,-0.960544089491899,2.033228183364959,1.1768779874669968,1.4384206220613958,0.1427475714617473,-0.6814701092587013,0.9008415026155105,0.18033289997221502,0.5980269333556281,1.90556233367037,-0.17297622278888689,-0.22590382665768774,0.7588839709592706,1.0339086507645137,0.21831006852074689,0.7643737122032147,1.631052361543039,1.626739556476683,-1.3984048027661264,0.4684006218661294,-1.5014984739178496,-2.1398538363225317,0.41347133477208664,0.7295371800503905,-1.1338866308892463,-0.8505325349824803
111,1.8996205588942399,1.4176173602108215,0.30528196426106013,4.714024222214201,1.0266895843635735,-0.08896706312055683,0.8092096335945624,1.367486390897176,-1.8465733974631697,-0.22512175082926122,-0.8260298764255303,0.7805558510382045,0.6369020875271341,-0.7147265474105567,-0.5876288358980614,-0.3055374607279066,-0.3131166739961167,-0.7222285177435923,-0.18523828708001255,0.5598045920790972,0.7349480369066882,0.16169018046672443,-1.614607145665837,-0.74316878266916,0.9471226628103198,-0.33405022778155796,0.8478370923307266,0.6152171671033132,-0.013051794655986977,-0.9452198528039376,1.3310658080957465,-0.9506302885994041,-1.3764453930237166,-0.4927038940629859,-0.26303398147353646
112,0.2087496167973974,-0.2584527045466134,-1.3696994967221596,-0.3184785374552666,-0.8780841050275754,1.5641766115675426,0.32982678230367957,-1.4375092867252082,-0.3622240670407752,0.07765366940535029,-2.0492412413425716,0.9830230560347379,-1.31253289753843,-0.6561933148877328,-0.9663588929873776,2.1258406944115986,0.9261000664877975,1.1693462313861647,-0.6566589453894239,-1.7919650655459525,-0.8170803441720961,-0.14031726162471933,1.0952325933116775,-1.1682540863850734,-1.222898311428949,1.176905575929342,0.5719769077216595,-0.7815685328678871,-0.2307454855615953,-0.6740203375353391,-0.16226525525017674,-0.7400209906843657,0.6157993026571136,-1.8296675560038569,-2.2046508373785665
113,-1.5097561411349705,-0.7668695206761403,-0.8468917838440891,-1.1190133353996705,-1.59519030332574,-1.900846597530669,-0.7316358869334811,-0.2582164863697883,-1.6844211928642128,-0.31727022121883747,-0.9658823170636501,-1.7740352893644218,-1.200769787158713,-0.06760949234688797,-1.3209650997391607,-0.4547221604167156,-0.707110223786108,0.17218394481212748,-1.090309697760695,1.0673971339839068,-0.75729823755272,-0.8447556056957232,0.12064994191665304,0.6120567597803741,0.43301147439426624,0.8097730189529422,-1.3500410800593894,0.8580739983105936,-1.4454663403565784,-0.0749391947939314,-0.17829683819140701,-1.6365115149000815,0.9764169920235437,-1.2969481110699677,1.569815712268565
114,-0.882096406841533,1.034000439111494,0.26224495716600593,0.1605064645870925,0.16199860104895367,0.18818848173321281,0.6918838184069155,0.4058571379829795,0.9521389519771981,0.6021996709142952,1.8273532067052167,0.06288564704911812,-0.46079419630227697,0.8129927865296583,0.13319609368373198,-1.2761699919574814,-1.3192967706944219,1.946221984718722,-1.8227866337893843,0.49939705381277477,2.2490785472720027,0.03510642589734785,1.390240772863901,1.7283528204343228,-0.8140619498892712,0.7285782971902018,0.3520407388732109,1.3131642303276079,0.24716416957499726,0.48853503541369736,-0.35702774012145744,0.21422117734363968,-0.8955405135740111,1.3845064510768794,-2.1069150070818075
115,0.294560808444749,-1.110622131771933,-1.084822413297204,-0.41704230551598753,0.6262149676647765,0.5077017498013296,2.3087313721049547,-0.6728435635475516,1.9502353037216456,-1.4922545332699861,0.11168911881978047,1.6982418167581264,-1.2520523742396634,-0.5801596424251354,1.5851690994617507,-0.5337201099826133,0.9270203642084948,-1.4254887541398311,1.4544231144688478,0.47444440744248095,-0.3294413819679631,-1.6112688050686912,-2.1877907722293286,-0.647306767030863,-0.3032854183857934,-0.9053108470298635,-0.6572751330237703,-1.38583337982408,0.32033578071860047,-0.16490974684315035,0.24249849130179382,0.2003041002623701,-0.15250608988081332,1.980125433881107,-1.5123428339196254
116,0.7074835303275603,-0.6671095691096643,0.7910448983384931,1.038351953659233,0.556257023203055,-0.5695939350170627,0.7620753434358837,0.3179999975003902,-1.6338361484786075,0.7547464039999088,0.7195938092293,0.7819713640344522,1.0247389132692988,-1.1076035044760668,1.8473704504686357,2.223887617093836,-0.8236637074681855,-0.5944664746338324,-0.06409335638915095,-1.9372248129366878,-0.10589869500123275,-0.5717644245657093,-0.254071298771707,1.1264990336573457,-0.5942824386107197,-0.14380383491531878,0.35853230801258684,-0.8956504681278338,0.2993620071322422,0.10932400835384522,1.2894868085213773,1.3853806594578495,1.638214534042915,0.07545013702769812,-1.2601194539427445
117,0.6940250794416354,0.33640142823062485,-0.20280840640546652,-2.4020661800715515,-1.4182188158593199,-1.6536047682078279,-0.13285048107392392,-1.5746283538142216,-0.6414293956087056,0.9900012498716085,0.3493225015361933,-0.5761508119411534,0.2583618126231067,-0.27979521682795006,0.9679914224485544,0.15413097706481826,-1.4178479143207339,0.19912049047050373,-1.0464671112813526,0.9352550774830244,0.10186509199380565,-0.1919367168906933,0.24249478581150283,0.1678512484572335,-0.9233740228926168,-0.8010781287828416,-0.20812162097181378,-2.6854498884372595,-1.0861662101781613,-0.22523949684060607,1.3250025142584207,1.2934173526092834,0.5205887974576505,0.5038934026836259,0.08183547184769975
118,-1.3484892667015032,0.886186919812674,0.851285395000202,-0.19042344323334984,0.121995444492477,0.8113070829794718,-0.4967582306361386,1.3983012855461905,-0.015789759444994965,-0.5405089520066477,0.8242991598263634,0.5924731476942309,0.2883914363819539,0.40405580001662056,-0.6597296649187798,0.5107501195333795,-0.697884521696879,-1.442616130484573,0.7143922786591911,-0.07490587117413108,-2.0881972753421274,-1.0697616777668273,-0.33611684695514876,1.0285769616813931,-0.6091019138804592,-0.9533390268400488,-0.052880614096231696,0.1899629809204647,0.36909505236511186,-0.5245862904181698,0.1728828246685475,-0.38316045564785517,-1.159709452847993,0.5582955555034816,2.214805453908858
119,0.22399165495010562,-0.148139829943807,0.3978129584062147,-0.05981896291475494,0.7549804810474733,0.8388477325986992,0.20224917643234647,0.2837009271094619,2.180719700940074,0.2611614850596116,1.476801244464412,0.8751580432609659,-0.1531660175003978,1.3127752940663755,-0.9283685836408488,-0.7104996427197041,-0.8422801025093313,-0.3272722033751803,0.7081125702184422,-1.2863824627811027,-1.0933009490201002,-1.3423787050792328,-0.6659709484856764,-1.739581886800129,-0.7565657485558674,0.31915573991380647,-0.5413638781694644,0.9727023661958272,-1.9723343287637736,-0.0370933345259444,0.37713952142921436,1.0049915982085291,2.2282260576296586,-0.7640978166071279,2.9516033885130883
120,-1.211062488919386,0.018862534885079357,-0.024716167819460542,-0.618874604153713,-0.5391344633762692,1.4482207567471612,-0.4657809642900035,2.002492497346987,0.654930474918416,0.09211461320001096,-1.357102927359438,1.0834085593996274,-0.8617241730914798,-1.4502308745482684,-0.09086913555077074,-2.43674235059413,1.3248748171416775,0.23719345207834147,-2.3808524914108675,2.3940381906114525,-0.7483244480036383,0.035650098527369306,0.7758607558334383,0.5818822988531808,-1.1881992048958836,2.311519858134234,-0.43713155111531093,-0.7771117792237958,0.5134769958242236,-0.5508492100083859,-0.19983963555988105,2.793395905043887,0.7784226986884992,0.5257660837773247,-0.01663863728939349
121,0.09624213318646664,-0.998931379665835,0.37513620161125383,-1.2869724861025074,0.736276189303123,1.2326454066549843,1.787700047084929,0.11252152221799996,-0.1919128008018459,-2.1571709545512228,-0.09090359782551352,0.43335619303357875,0.8393071662882998,-0.16285736314874175,0.17012971974846988,0.9699791433621819,0.3602480149372131,0.20999918676678808,0.8706272497145991,-1.657355269528776,-1.8605901890242553,0.5122705933050078,1.7142331427452964,0.9982560104420424,0.8990455595874347,-0.45566591761101277,-0.43430560194503876,-0.7723185000467958,0.5235637022363071,0.1259379308654319,-0.08647928154973912,-0.2743433607896457,1.4313885980246757,0.6047830678810814,-1.161896394646967
122,-1.0293309201062941,0.32358521961049846,0.3363699485844624,-0.3334579134814414,0.6764779340292721,-0.011614280735589472,-0.9993946013280403,-0.19874913417840087,0.7374694042147255,-1.4848410977231974,1.716290485735497,-0.5144653209338488,-1.0723227138514029,-0.9074926333535255,-1.3809852292990366,-1.13919531671246,-1.4633913182711946,1.4789536891385988,-0.40161917079471077,1.7825113410365065,0.4255052339540497,-0.7791301620927706,-1.3380967286552423,2.9834551962788534,0.027769023149011085,-0.468454781702646,-0.6325836303007079,-0.45661360775335613,-0.01154036178669676,-0.06795693936612252,0.5301849839916157,-0.6156754414440367,-0.20477829819166227,1.3080120929138324,2.0636677190579213
123,0.7936917163351229,1.4355768885216775,-0.5562379586133052,-2.110488769345209,-0.623987165092469,0.40978407133299466,0.6818950777590278,0.47419893631182414,-1.7876259787931579,1.5274452798874998,-0.015190629778478461,-1.832707438466612,-0.9899490658691209,0.35006187041766057,-0.8546739911905662,0.16129891895091145,-0.5091478541245006,1.5985083950674421,-0.2378030069137923,0.801409559622066,-0.7507047494976364,-1.454185800088504,1.4246635190027288,-1.019318647582187,-0.2671731137714024,0.6154758981329196,2.1349284300045754,-0.31667705967648263,0.8831879890496765,-0.05527292357917585,0.23175646987403628,-1.4083937823766326,-0.6042815283585216,0.27647456157287287,0.6785050672679648
124,-1.0423665530363002,-0.7226201299240739,-0.49261209151407875,-0.1760584498474394,1.0341708116497361,1.5628788448073168,0.8538899911231578,-0.7067386730481854,0.5505444861938286,-0.8610015525493836,-1.2570994859369706,-1.35301136086818,0.5152469209229004,-0.625617766074998,-1.0211351942934,0.6512408143290291,-1.3899269654547244,1.9495613057990808,0.9729426061103201,-0.5916475541293569,-1.8940305363158634,-0.08682152373315924,-1.7584555427356432,1.0250691433333496,-1.3378320729563724,0.2128592886825482,-0.004485367976728839,-1.0085227803980046,-0.5530845821243776,-0.5667024085120199,-0.886918162036188,0.13115385948219038,0.18117161000412696,-1.0500917229694822,0.19456533365037382
125,-1.3564634683777341,-0.7930022130558674,-0.12295009253884293,-0.2927728142773928,-0.6452524130748546,1.6616157330486467,-0.564476094708893,-0.9095033217618534,-0.8106296479122795,1.3929481522215286,1.1949209434903942,-0.697455869382328,0.2732199256800401,0.09893659946474766,0.313896054404584,-0.07231697723234659,0.21281478883898028,2.062726740310771,0.2794235482861334,-1.6107689532317175,-0.03273084117452013,-0.10167474592434393,0.4768480177319724,-0.8035944260028244,0.12167381991906029,-1.7566080263328758,1.8108922830762209,0.858309461149733,0.8563867556552847,0.5117588476220563,0.42016673756894735,0.08122118913992557,1.3961282486845665,1.1297453974396257,0.9406199005664728
126,0.5945326603720005,0.30123183816508003,-0.4231361825288003,-0.4394901201650363,1.2272505145516894,-1.0084579496504829,-0.7972589275791324,0.12999117069774213,0.26050402197000333,1.1683897503479896,-0.5005672309050021,0.2870602184249914,-1.1319723428958162,0.4315999662784,-0.7597388393918356,-0.13199340644389274,1.6644806568346666,-0.5114453667244442,-1.621014937359708,0.05626474139686622,0.6560344077103933,1.422052127704103,0.41062377432884234,-2.8438693142260356,-0.05931578839469818,0.31576538397211956,1.036209912672767,-0.9853197983801866,-0.0917533483577975,-0.6844098765207274,-0.838638972410898,1.5845290379346277,-0.21380162388601917,-0.5588314707826932,-0.010490535427992524
127,0.6681732285806689,-0.12202904051962934,1.5971584309364282,-1.4542092006826617,-0.3334866561808382,-0.8641386369748556,1.0399398976930545,-1.2873826586335628,-1.463062119606416,0.18517872448529013,0.8522523008895889,-0.686773364375257,-2.2493337211653084,0.9735867265418701,0.8730677224472276,0.3073859673730558,1.185907877834594,0.07524271112706908,2.0177906529010925,1.9970314733738206,0.6456944268179503,0.8244362186662887,0.5909334866711687,-0.10649717492262936,0.5830249090038975,1.39810881509078,-0.787754496836089,2.231412085958467,-0.8633250706568415,-1.4263232368301388,0.060297249513334025,0.09990918681792474,-2.019217651256415,-0.9651758297705795,-0.7933014050190071
128,-0.9784497911467671,-0.06290985141474853,0.15434558859665987,-0.16559851714775156,-0.6553825509017646,0.3897267504276135,0.592387250726351,-0.6900593589934013,0.34072821644869467,0.258207974420045,0.2864348725464824,-0.8575346587154402,0.06616036421383299,2.091551420414233,0.9371580387973765,1.3101520914520304,0.2870796246236688,0.44381963433499777,0.2778075724060391,0.8547925896025198,-0.162094139254495,-2.014466735132178,0.12549619728993083,0.5282272700242049,-1.4583617401717708,0.9276078479965968,-0.2809221745478099,0.5003574577281841,-0.7932438039125285,0.15137302120281895,-0.8850386822985986,-1.322931806762789,0.1480642778904613,-0.4312708010223508,-1.086812293568331
129,0.560035314688661,0.25815843415715584,0.39931254302257413,0.6770066449417866,-0.08801685143595969,0.5951895903784292,0.10320719592620828,-1.441008803519284,0.4340062306207627,-0.9617021000533392,-2.25830110366869,0.56954708936557,-0.3533384228772635,-1.1327823870793687,0.5592902685804669,-0.8364914721278697,0.8087988807752274,-0.7824429599121396,-0.8142423900796546,0.41715008878412546,-0.07061468205984932,-0.16924524001622362,1.46098616600714,-0.997601496646911,-0.15218423043670132,-0.35564467778036035,0.9310094863483964,-0.924220550546275,0.9599213974462522,0.003746865757422591,-0.5325640669642981,-0.08419534260813503,0.3597083846783904,1.1880420316570954,1.4883158699824548
130,1.0816304750006005,1.1481339966588717,-0.17428199875296538,-1.0167379972700592,0.14703781053188006,1.9621750083919565,0.972231999597125,-0.8771434512061158,-0.1286346259376275,0.8247141310561223,-0.9961616824576834,-0.22427514474317606,0.9504858385039304,-1.279265032628441,-0.29339599110893677,1.9067033825299453,-0.33377885648520284,1.386095242073933,-0.2024118988679689,0.49057222583131344,1.7827768682327192,0.9773204172111193,-0.6403299651174245,-0.3815454193194116,0.48819527521495426,0.520607004211212,-0.5384486803600785,0.8238529930104268,0.6392069459968854,-0.09888495930062415,0.9863878526253059,-1.0052635657094986,-0.555430225879556,0.061129326256738864,-0.4181851198902915
131,-0.3153454758756099,0.40798217317556545,-1.3024682797830671,0.6746633230576999,0.40032398745214637,-0.435352082222558,-0.691747339757865,-0.2824378710850247,-0.4154840396124021,0.13584659819145362,0.6193558218191028,0.1047394323898039,-0.5378583076316384,1.200344059645483,0.9392796850361818,-1.0705818537253684,-1.0708444724742439,0.8288321465735604,0.19961011197655507,-0.7085481475769678,1.1186316257601276,-0.6582011036716211,-0.17698350632829565,-1.104916433431016,-0.23086413225839186,-0.40188960938995255,-0.8013373566831195,0.7017548344562364,0.44556756737250547,0.005611191588227605,-1.2275660917170077,-1.3247446856030303,-0.40100935484925637,-0.8019154594302099,1.3047999684956524
132,-0.40490614596290714,1.865327771799827,-0.6526739389328379,0.3074124833895514,0.44680344668401917,-1.6219859797118175,0.20709209347903534,-0.3598914132302794,-1.3993994945082107,2.007547147473691,0.9219114068569827,-1.3892408147327875,-1.2403365049972528,-0.6273861520141412,1.122565804963516,0.8176205421849535,-0.14300640662372002,-0.8374404912229375,-0.6016855443515486,-0.701777917256237,1.4182008895711264,-0.42449983276630265,-0.29810017049164556,1.9236641536143808,-0.26592116289797885,-1.224383700012093,-1.9807804453183737,0.44262706807986574,0.9647033534210278,-1.7708571911405373,1.4216548481388367,0.29829752393840164,0.5541653461145858,-0.9511403982455566,3.182689709787904
133,-1.295861604320125,0.9415422910024892,-2.5956674483410835,0.5870086514547184,0.19047673957659503,0.8547184817561463,0.2617136385130482,-0.37212150944923067,1.1665773829401909,0.5884265296114708,-1.3318890482909913,-1.765783134247898,-0.11133680635781686,0.03363012403972989,-1.141112160556809,-0.44555531363174194,0.975829776938579,-0.47007145578782167,1.2212539468069064,-0.24262211860177776,-0.5302185558248194,0.6576569591524974,0.17450664222815931,-0.30345760598542026,0.7996358594943342,-3.2033540396641564,-0.29210061786272923,1.3876941583339475,0.33271936894147935,-1.1809967972266433,-0.6615334268318425,-0.05762829782744683,0.8468836195627778,0.9823361912589067,2.2433638955709734
134,-0.8286935686222191,-0.4362167781965924,0.37569997561431884,0.6260305273643698,0.888967741927932,-0.5042470352882669,0.7999915632182398,0.3347221317905796,0.6386818821756565,-0.5626435869955719,-1.5254681274284492,0.29585503923204914,-0.9156306858743505,0.621341350357533,1.033680084951995,-0.5594774028191067,-0.7439957468035175,0.49760615763634464,0.07305980291114497,0.35730235039100827,-0.213015686273892,1.0070274635571295,0.3631227509220688,0.7491203539501676,0.5729230062938531,0.7881887225106883,-0.6487943461976763,0.9061100725794,0.2697392066711474,0.874606220599577,0.5311680874812126,0.2202376093694772,-0.5808764320161629,-0.05978967854361537,-2.18075948340922
135,0.0025999294589129354,-2.0865871172512165,0.44203580496092665,1.0781807594057657,0.6356708510562109,-0.5507304492853501,0.49313923319055886,0.4489008623567363,-1.5421181425543302,1.9462576063196473,-0.2140009990681484,-0.014007051713208407,-0.5615593414942649,0.926712689791577,0.8243724127613723,-0.14059189436490568,-2.493618158113365,0.4252649721583109,-1.4765461762091328,-0.8574173529809003,-1.0448459166076791,-0.8595983528312018,0.22474481654765194,0.4549596744298039,2.6868005424255776,0.2755563237051216,0.271605029844323,1.5837931214645575,-0.11890517188103628,-0.37840842094934496,-1.01304189194164,-1.5152937502051753,-1.831005142565339,2.1408319228253463,-0.0025982837617270237
136,0.04588174997001121,1.6852801783153648,1.1888604502448075,0.5575690058577242,0.843835167307423,-0.7089815652433413,0.32820676109958546,0.48133960479561977,-1.9534853878852714,-0.043745285565625444,0.21996427770688887,0.03541562363205465,-0.3325918309253074,-0.7554763245682252,-1.9439262911843422,-0.11542535871249396,-0.6353850688716065,0.38508898901413813,-0.12785774684936577,1.1405739652844789,-0.9783559019995749,-0.6825779127833788,-1.0521325392719476,0.7232219576069784,0.7889167911072783,0.17766381027284084,0.5899246309616509,1.0559140373234899,-0.8367981641520881,-0.292221674404203,-1.437603876656094,-0.6391263220399687,0.07687236856777672,0.5469996394984177,0.4666169074466052
137,0.013690129420259997,-0.41535502876270075,-0.5257397379107236,0.6098159222866019,1.1437370900207184,0.502124407877203,0.6373485048885211,0.4776928658480954,-0.4246632674292328,-0.27989640389478065,0.6850748493570263,0.06786895533913234,0.5889636051111309,0.3262583761519837,0.6313526426253985,-2.153982651455891,-1.448579534219308,0.3143007832216957,-0.9835655380205758,-0.20265508188526912,-1.0345098297286153,2.5238005113340964,0.18323360699074315,-0.5331778290692331,0.9970066243992027,-0.6614404064388665,-0.4449042414801198,-0.3033877361737734,-1.5562108971839617,0.1244568196836083,1.894860142733039,0.9913696457608339,0.6419643788091154,-1.4484642885100925,0.592977350618028
138,0.8982099809310227,0.35271990309537377,0.2739499637645419,0.8710759031679778,-0.6745256880397174,0.14716295321203632,-0.7872630327680931,1.3375089555135569,-0.1435687643677427,-0.5979391329722482,-0.23641736949931189,-0.7042717490859428,-0.06479030103924582,1.0725265974893092,0.40376182023108903,-0.37053269017547164,0.07271328240739336,0.16855114112276384,-0.6082189899205738,0.2269426464530415,0.5906343293190721,1.4103733900929258,0.6005284138436064,-0.34529829280728547,1.3961059261190267,0.8558192904386231,0.11793808162417778,-2.701230743993017,-0.9564257460479025,0.8431613021649228,0.5022177836061901,-0.43837168210235977,0.008688750185397411,-0.4143958734781529,1.2872143852295472
139,1.58187009706172,-1.7367901748448944,0.6541850979150992,1.0663852097106241,0.4746705840006611,-0.704483728313064,0.939849392491789,-0.36146586882545045,-1.6908718246844618,-0.21146735226551375,-0.9312866104469437,-0.6041129990318507,1.115213744500659,0.9195142993761569,0.21239035456389538,-0.42203011004168617,-2.4701729932510164,0.5189227561778642,-0.7026554711044048,0.38841455596815405,0.394130621857136,-0.40880088226622097,-0.43372738195184163,0.14402033945700102,0.6581469030053636,-0.9397543489140475,0.8872434591693408,1.31966439635157,1.2477322677425222,-0.31403666060987817,-2.841295344469563,-0.08988627109380024,-0.6582551721247426,1.4011364544600662,-0.18931383029222454
140,1.0320315079992108,1.2181792032204306,0.023305771269450142,0.3715434632464722,-0.693868837349527,-1.0050253942685003,-0.5041172391041614,2.58595296352901,0.5106792814613775,-0.17055818807179915,0.8610432605529306,0.6219582965024105,-1.4126306725634947,0.5506871809986461,0.1827800146284492,0.14255503023357446,0.4132163146305683,0.17448596568735428,0.5300643977528108,-0.7345192429197316,1.951357001647875,-0.40483043360592447,0.9623910775446157,-0.9725072332807413,-0.8881255476772034,-2.0974390595808483,-1.0835633856137452,-1.110948027860687,-0.11896502597997627,2.021861403331234,0.8620104766400283,-0.7487425412781444,-1.9724441230726764,1.6995717199863003,-0.5685371824149414
141,0.8681252762403954,0.11937043504375504,-1.2787966139312996,0.16346574006865155,0.3456562723929338,-0.3154608014037087,-1.04825187340061,1.560602076870724,0.11351192017435041,-1.2445193153195038,0.6085437827976958,0.3817574579958072,-0.4062165555368079,-1.0180696563344651,0.45811023720560884,0.9568844296412143,-0.07021468393610727,1.0493211823158413,0.38934451220271543,-0.7094929935506554,0.829431413260979,-0.12868495064355903,0.03625522993600504,0.5677417397049936,-1.2569685290995585,-1.0794857924069596,0.6507311023891343,-0.8247103021989661,-0.7093272648249316,0.1571718807175956,2.012017231127315,-0.4781245900963111,1.0094511321925237,-1.2603594098911797,0.9491061433788873
142,-0.4039189875460596,-2.07272565012457,-0.8362973780134769,1.0089033471552264,0.32740731649759747,0.7090691867899404,0.21903024258401108,-0.5494212130612955,1.3341684468634691,-2.292104332285733,-0.6390089179574393,0.20536373382445836,1.4832513334018296,1.869076402056517,-1.2076683259215555,0.397838355907382,0.3861407066861052,1.4669237348545445,-0.9378595508714054,2.955497716729037,-0.7677832522344438,-0.6193089602265155,-0.21719452269392103,-0.7578299786340502,2.5286481485124077,-1.765013644400267,-0.6316704221975503,0.04467077261106647,-0.33012844149036225,-0.14477985954852318,1.5827175967884661,1.6112615605397362,-2.858935354864041,-1.170277630681007,0.2851520403316181
143,0.5436135795979825,-0.011316792215719693,0.43114227316818726,-1.1876011869179939,2.5126440288717506,0.3145518334630602,0.3543953843209402,1.297940776627503,0.5099114364609381,-0.23468764111699578,-0.4519956509684495,-0.4093111069963655,0.2359449904405182,0.005808005065868208,1.436794049677487,-1.3216239384433528,-0.35420119209811146,0.8002081548233922,0.9901931125276515,1.3267881338703897,1.0792361927748138,-0.07696759045915666,-0.39096965958117125,0.05561353362354396,0.8642517745160719,-1.6570159497530423,1.421074111090475,1.9847660419427668,0.5879355796904088,-2.1614373463349024,-0.18359855438252076,-1.6496511003204304,-0.3623716153728635,-0.6501366214396053,-0.7053652117889846
144,-0.8967975021773537,-0.9650241067160955,-1.0987570633116854,0.9812064426286178,-1.576238624742819,0.36231324410468885,1.198545313480063,-0.04759276846385737,0.3347605154137591,-2.024723113020658,-0.3804173528273379,-0.167350526851949,0.19055278073471946,0.7527432431035269,0.8715043461972384,-0.16939892047091926,0.04910421991395554,0.46224484341913724,-0.48887933118619337,-1.3459832931143696,0.2809218850950676,-0.39751831644153873,0.22403763441092994,-0.6653716453420214,-0.34657385047951533,-0.18909465491237934,1.385061087721329,-0.009232635840934747,0.7181667137103452,-2.0221616347012534,-0.11063876936294008,0.0637297809021262,0.3639361831738309,-1.1784312737891494,-0.9200717363847496
145,-1.900009254562002,0.39418783122097467,0.14781145236644966,-0.2639273728354887,-0.5940665208238781,1.422138283680871,-0.37992439094793656,0.5892000865859935,-0.5843929098098014,0.32541690528262873,-1.0811347653922967,1.1243959985870535,0.6967769811832991,0.38038799464875395,-0.2558504533315916,0.7767129320830735,0.3100946893131037,0.027415813842103925,0.7719925380645529,-0.14312992903527041,-0.5189669840642837,1.7533967250270919,0.23875829810303054,-1.7560726493738323,1.238845412556541,-0.649727582901792,-1.6368144354391603,-0.34100709826962755,-1.700513134551133,-1.0811258450838972,-0.8539259920833784,-1.0868348836452335,-0.1626867102984686,-0.06448183031351952,1.2191159013232589
146,-2.219546691866195,0.32195814104918163,-0.3092733867539543,-0.9373792497737595,0.9792768332036741,-0.3821586052279818,-0.7969034028177278,0.7987832874200782,0.22981605086017864,-1.1874308222561594,0.7980036110221054,-0.24035755585396634,-0.726989052852223,-1.178960675178246,-0.23204053906637717,-1.1839418121286622,1.5630478530389817,-0.5460206902121597,0.5996549900471513,-1.2083702447404372,0.0495866449473032,0.3142403166100649,0.4018322341581229,-0.7811526627456657,1.124287240350659,-1.0724169797399654,-1.153022785744059,-0.9993142945779065,0.22556311326488962,-1.3791505459428757,-1.8492710385946374,-0.0952837839990495,0.008841945037934455,1.2855965541017884,1.2405440419655163
147,-0.48347146194036517,-1.9061285555286482,-0.21262071658098627,0.2760984276467487,0.7081778905606346,-0.6437491350811124,0.44951190843602123,-0.42668915123135276,-1.284110915170314,-0.7516224163839413,0.1408201269070398,0.8730086095415818,-2.651149284392294,-0.9374330979043058,-0.29388242233096173,0.3557049613146722,-1.3039427792156915,0.13480114684209357,0.19329599131787498,1.2093409310669934,-0.7676350045030382,0.6366263277800001,0.7742396410210987,-2.3188151713060163,-2.7895437398326663,0.15124135784708595,0.8024785819583938,-1.124933067586435,1.48570202962555,1.4281026936824377,0.534783510811219,-0.41788901151741487,-0.28102828980897204,0.05540027470084807,0.9472493277829601
148,0.9501195461865004,0.17389131525370805,-0.9633420891985824,1.5922548334594533,-0.32507188523886715,-0.12541482203516383,-0.18048306993029284,0.11435372964843889,-0.12163874262951706,1.017403379428008,-0.3638243054833733,0.15559301822663457,1.0102706317962795,-0.6252387412100486,0.039576487189863084,-0.7149632268094538,0.1355102782819425,-0.1827908698442049,-0.5747233285073025,-0.2931053123651251,-0.12464821488021809,0.23775155998964642,-1.223514964551388,2.647027240568014,-1.4078971537826326,-0.6875343456859832,1.4377216676367464,1.6535519771545655,-2.0345519068744147,1.2137683337670244,-0.3009439141201822,-1.8018525735377844,-0.2149191382019413,-0.35758253291894904,1.682963369574259
149,1.1564679573643302,-0.8233663306823062,-0.3868963196203148,0.05559205467727563,-0.4751811900802938,0.20603667838149992,1.5795717948488832,-1.2350027561539014,-0.8295108856870419,0.8812677712478573,1.6759350255019239,0.8623954894869528,1.563442821127431,-0.2616346892435793,1.0880001191420046,-0.254759831075193,1.593635638873304,0.6005366635481589,-1.0821133062837425,0.3366386426465764,-1.3464716834528618,0.15269247870479224,1.1783597350363546,-1.8716696384723404,1.1444800460167153,1.5810868607134403,0.0394624443050407,-2.55738199453921,0.32951474410442416,0.9805643705251964,-0.17774147952706582,-0.20378842132680008,1.2851005020450492,0.5214105874779869,0.8191808928334994
150,-2.2175039202385207,-0.32003643587897235,-1.1356612101017982,0.594746054833064,0.8575941889950812,0.08144400449209453,-1.083649958203862,0.6193183590468055,0.857980673953254,-1.0514065163904491,0.42653459541838296,1.4987188208542273,0.5454373168962736,-1.78794969399761,0.22924064867655758,0.682595154443172,0.34421278230010155,0.5318086460108611,1.2921327799325666,0.4383504063182301,0.8975114796040766,-1.3973426043962955,0.5431520485848909,0.07636781851338217,-0.003316244881567914,1.0635549019111115,-0.45304800378020554,-0.6418828800045899,0.04825155056517771,0.36987184490733904,-0.673803235176051,0.20713872860337307,-2.1113666686129697,-0.3155839909483278,-0.4943359729362836
151,0.1040367190763139,1.2891201061943687,0.30684484808961854,-1.0220786583571553,-1.519732712227493,1.9058657492895092,-1.2576215027019377,-0.044889910449333,-0.8382736836786495,-0.5185549422790371,-0.9260688431305479,0.22554613495267434,0.8500710122396253,1.3435029352341072,0.8921047703829313,-0.2181590161451788,-2.0631183955742656,0.08577592797777948,-2.8848083084843155,0.3524490247533288,0.356500988653926,0.11173947458787901,-0.41253270738080994,0.8296156549471685,1.055027265884592,-0.25561643486583124,0.6138051958813795,-1.0643913175915296,0.07711287122454653,0.132526116134585,-2.0466059906355065,-0.49639018934196677,-0.8925531098603432,-0.8819641904724583,-1.3430509730720592
152,-1.3285254800619566,-0.46235616527663176,-1.1527699652562104,-0.9434991802821034,-0.22216803120058098,0.7807070995089199,-1.601282136910746,-0.7470380795559,0.5579012417672796,-0.9322750481370987,-0.6820881200968927,-1.9837058318524352,0.7552713006607691,2.2188223734263057,0.016762324230894896,-0.7668123343063685,0.7986890847221307,0.39741425258603014,-0.5701692967654868,0.6595591710818274,0.9737811701296223,0.1585508936848272,-2.4366408533915833,0.11744770258124589,-0.737074323989384,-0.6970992936276352,-2.008331060922617,1.467644483643958,-0.2492413900571136,0.7110872390653966,1.833237922316643,0.9757467766905299,-1.8403040366206165,0.28138455670119783,-0.5119200380646571
153,-0.6479463123052697,1.2468211586781073,1.3430862297050246,1.4795821239449058,0.4340207941658052,-0.4283852479127472,0.7393546601718789,0.7299971755008462,0.00785100545331595,0.8352851021859615,0.26862639825375584,-0.23994585455781658,0.5234156593256023,0.41167082711266373,-0.14901975111460083,-0.4075121868701373,1.0239093361938354,-0.11806798037182616,2.3867489575940137,-0.5457376840704286,0.7715067494890004,-0.08163565133322583,0.6979116454780349,-0.3305331656828839,0.7936301285798846,0.19852293272956684,0.5991084343691949,0.07350739288159998,-0.47028490159848146,-1.707566038635064,0.09111397383639097,0.194511530476637,1.8258200943478982,0.2869511781516138,-0.8195454663305942
154,-0.31844530125707143,0.9973807963503286,1.833302337153933,-1.2799980486139237,-0.673326954213366,0.12473414961007981,-1.2949505036460038,-0.771345747413379,-1.7168413720160651,-0.9882894010123026,1.975402449285641,-1.3124283919384245,-0.770407522381746,-1.0623447365812613,-0.0011026539580605331,-0.7054450257316106,-0.0628720056171488,-0.22703270214107352,1.3665510922737576,1.8744083037145307,1.0912111829102076,0.4081123477792832,0.7792375662363737,0.9938012697020102,-0.1666508652749947,1.4007669446568347,-0.4322338917740722,-0.7233775890690298,0.507317922410146,1.5185401494412347,0.8553678876512655,2.1407842412866835,-1.4044960645077382,-0.12432748321436835,-0.7972041600876952
155,0.5978893363551759,0.02798734414890514,0.6966726887373123,-1.3311187171728758,-1.0309583074340487,-0.8356348186650421,0.9912975561556021,2.3560382812616973,0.9927908201489046,-0.7092271490710226,-0.09335240014032599,-0.8674801477925578,0.46220877620508605,0.38118298193920586,-0.1563991721942517,0.3148031707079548,-0.2178526102737467,-0.22997737750359318,0.7756032460410137,0.9037438284400685,-0.3699601505982695,0.6509876985528165,-0.42723898105319535,-2.1042630964418176,-0.10434313367352231,0.33748246727957165,-0.4637007568323036,-0.958076324446576,-1.4135503092248594,-0.1679439236124741,0.6487514067777735,0.7781373871858512,-0.2582414818922992,-0.7621957267648741,-0.9506876119860277
156,-0.6157533912306559,0.4235547848344262,0.2727892955390652,1.0778513016518076,-0.15608263899657226,0.6000264159995481,-1.1481999255785251,0.3998684515991915,0.22835124400620777,0.1657495760579914,-0.24120271621594258,-0.8442698316452761,1.3820534318458817,-0.029322229591390244,-0.6407196054483669,0.06422898548658319,0.9679010063166166,-0.0029597210882971172,-0.19613316876130749,0.46159879210173477,0.9848417044252491,0.18915503596578265,1.540014431438669,0.2642548197868098,1.095276578870459,-0.07732510226945107,0.9427972833849312,-0.2895717406599933,-0.6542631544862348,-1.504152934401259,0.090959110364584,0.28558922096582245,0.09987887195563995,0.7551526104656506,-0.5788090165801172
157,-0.6997810154147663,0.09446846058720337,-0.6151783398836917,1.302013673681923,-0.2351061795281375,-0.07714264923806666,1.9088787848158422,-1.8204264846862663,0.5316391732099877,0.1190340171530936,1.093483266624688,0.03232973661129521,-0.44078540813964034,1.380533584705551,0.932779751646951,0.4746043932542733,0.5709227154274567,0.0910217096405785,-0.9925150867963831,-0.9833614533061148,-0.40913927033770703,-0.7827235329733048,-0.49604810573493746,0.6180801569854556,0.3712480481125272,-0.8617916619091829,-1.1137223521171122,2.1155387069492955,-1.3532069071064978,-0.23487876021638618,0.6723690083125989,-0.2880369778861089,-1.0386441027295752,-2.819448094841798,-1.0352011104354073
158,-0.5455358266459036,0.4999418454097545,0.670496170267672,0.6615771043526089,1.0696731885790247,-0.25255046474245413,-0.15259541374470098,-0.6951708860197752,-1.609405456649889,-0.948170166079602,1.130053934380646,-0.45369865880461946,0.10220180799169115,-0.06213555199593618,-0.8227837170964752,-0.8847542988198456,0.11820352696404103,1.9826469816536196,0.16348981609854646,-0.7819629291813596,0.2925603603634365,1.427915431581255,1.067195482393416,-0.5314864206838209,-0.4154230722659693,-0.5308786565370093,-1.1837207802770227,0.8712689871391739,3.1759971504815674,-2.0161017045769736,-0.8606641000044286,-1.8006266970566118,2.109145566468852,-1.3298444551945128,0.9169588426522861
159,-0.6205924875153764,0.06364036548750739,0.3445339685943753,0.946891387281316,-0.1820177302771034,-1.6626727762878497,0.7922286856090504,0.5282262138552292,-1.0736494384669217,-0.6009499941539426,0.45545793671448254,-0.23860888521704438,-0.07104847255145637,-0.08993514829790651,0.19970994181931087,0.18115926646689665,-0.048392284865256936,0.2685371502223402,1.5019520262139974,-0.18324691178143865,-0.8013609474521098,0.3629292678178604,-0.5201521554880465,0.9156607702996666,0.5161520705752961,1.0430896549710196,0.5290789689499265,-0.17526049489765308,0.8654616917167002,-0.5365356006034113,1.8601874837819286,-0.13676682121372635,0.009332715586588412,-0.14421103222773832,-0.05957094392379796
160,0.0914479496242629,0.46392005242069934,-1.0830195509727623,0.08956310240115496,-1.3721202002243238,-0.002742074399936122,0.5777871759502525,-2.2911141657486014,-1.4197852590522246,0.08141348903930695,1.1395478662242182,-0.93115817113231,-0.17588037977471188,-1.6298071833336782,1.1296501929742486,1.206620267268236,-0.7777390408194103,-1.062136147628316,1.5896875324058848,0.3060523117191499,0.44640600057000024,-0.7983988630352511,0.8423974807052191,0.9555032828515936,0.6045609254280152,0.8644014700600474,-0.18726111673647577,-1.2728199624558747,1.6120667693111097,-1.113634139998821,0.05621910306690582,2.459091486188581,0.5850724356319653,-1.733201453617672,-0.1310206813742129
161,-0.6959214681056876,-1.4504672148567,-1.1130678882941314,-1.5671694260690143,-1.294548287846235,0.734843287049417,0.5684951115294196,-0.6718198854796241,0.031124022334616537,-1.0068128110428483,-0.023038460797049694,2.5520175202057835,0.679822121812775,-0.20548498106970436,-0.7893963141322835,-0.28951663864108473,0.43897662481970323,2.0989589186173006,-0.01947041231712032,1.2309057238120114,-0.33170443827251617,-2.3177463278148407,-0.24213124334275954,0.8835808696178967,-0.5872313630794148,0.1356728473669771,-0.5832992988321556,1.2140504901601754,-0.8153848309430155,1.797844626598522,-0.5000154144648777,-0.5041999388264345,0.5144022301077726,0.22167858341725405,1.1397656521885675
162,-0.6505864500633093,-0.9446379883708954,0.992584073799183,-1.0700042663913978,0.5300653211603978,1.706280753273285,-0.00237223743868364,0.6138928079770237,-0.5861799906551487,-1.191253412936344,-0.902968109278309,-0.6122447951990498,0.5726449361676327,0.9107073899981999,0.47862588829061453,-0.9237550088619843,0.6697324489056932,0.48262781464849613,0.7512809088461515,-0.931169315217527,0.1666178682552152,-1.0839736721275268,0.4537581703433169,0.9943680042561935,-0.9621911921244504,-0.6148860620023798,-0.00020719917758947552,-0.42166361193664686,-1.0509785336839352,-1.9755383481576452,-0.060952474941048045,-0.9951894842903966,3.479545463186767,0.22942035050339285,-0.017155406561721525
163,-0.0037486673455007138,0.4553404310283438,0.3875490290552454,1.594340936131848,-0.558772002641936,1.326753392521395,0.27269757243356735,-0.9957199530452695,-0.32733644667584083,-0.011410058487484392,-0.14621259076207033,-1.1697411635304975,0.4690065572368597,-0.9568795976460454,0.12848423842118048,-0.06151154753208299,0.3307010863580392,0.0538430586923644,-1.4312458633430305,-1.932363784859754,-0.2595047068862608,-1.7482513166384015,0.149288482300926,-0.22244048815559128,0.13834448340719335,1.4742723633026584,-0.4015178205747329,1.2704106073058832,-0.6805834327756396,2.0679914964688795,-0.19450776698700598,-2.063759446516086,0.5033462713574548,-0.25648553441216176,-1.896012764140583
164,-0.03992169487845601,-1.0653258332345716,-1.2277355837396584,-0.8730614485718149,-1.527970934138124,0.09949282676953224,-1.5095857721875996,1.8576737841515085,0.6336223075572356,-2.1279461414277274,-0.43171839060131567,-0.7598737938431485,0.8589250053734981,0.5606670552411884,0.532189438197864,0.009472785528706654,0.04508482696313738,-0.15505797191664036,0.5758564894959373,-1.7429272286589335,0.3634352782816476,-0.11087585819950875,0.21427089347215644,1.7880138713769997,-0.9120890123616429,-0.4166620789257796,1.2626995955920097,1.605455089514158,0.1074835031115288,-0.6468301082893175,-0.36434739756858897,-0.897770079916964,-1.4069119532278642,0.3695078828062283,0.5969328442953299
165,-0.2724017659987722,0.125787343444454,0.07204305400158607,-0.05553610308412166,0.15265200023277095,-0.9370659161779564,0.6170952009654527,1.612287813867157,0.3398158384286194,0.9584830468358734,0.2805317972712146,-0.2979821134270316,-0.6915375128244254,0.08218837384959234,-1.9027458627285505,-1.2570454514168388,1.144399429785765,-1.3502641024468116,2.4152351718059717,-0.8880930931809344,-1.0461363183047017,0.36621046210779273,0.8857944516627557,-1.5635755948610206,-0.8364872974635521,1.5805214373054302,0.024297649019414166,3.750457646265973,-0.4487635259267238,-0.5350772456155728,-0.6383016869544968,1.1031310483008505,1.1864283978353718,-1.1943779494740279,0.6319530869704214
166,-1.1137535405883692,0.05340097626056597,0.04695859693441726,-0.25719374293696734,-1.7868777616511746,1.164803450511835,-0.7848888652401644,1.1107672305864182,-0.27649685744605335,-0.7386224852365225,1.5901631272515917,0.1441049394129515,0.7903239498154155,1.0260105870445217,0.18445554891203303,1.0985910472653269,-0.5931785736377914,0.772917377274305,-0.8772475096460619,0.014255512678541023,0.13887026611337341,-0.5665856305379919,0.6454954319993109,-1.1261196824230433,-1.3462761469159679,-0.6314159351699709,-0.7442753784505819,1.7910130857852733,1.22800557517087,-0.4464416078178796,-0.45688793793615035,0.19489516771734766,0.8219489702214827,0.016487992589341742,-0.5720367192847396
167,0.915303369691719,-0.1692582509790133,-0.6259081388041334,-0.12023720317874957,0.16334012030400485,-0.37348756788800447,0.36434010934251215,-0.5044045225331804,-0.2091830444048226,0.6276885364637089,0.6237795733047228,0.14322269892389627,-0.08403723992088825,-0.480376593269472,-0.3740196115389609,-1.19388568251711,-0.31403558913532725,-1.383609613210904,0.5796737520266115,1.0936656112082468,-0.6425889354660187,-1.717747742237444,-0.48526509221633823,-0.516330931936552,-0.046467361782682834,0.36601388751169023,0.12161600453192885,0.19294253534900263,-1.3363491865187154,-0.5796088218187574,-0.5130165462070132,0.17205068529200482,-1.1840529873374162,1.0244552535355673,-0.8359299821788166
168,-1.2529958125613934,-1.2936412700851923,-0.8475650176555661,0.08289847553096302,0.3269716817569933,0.4420536245277251,-0.9621826482631541,0.03658251267092312,0.5243561189705913,0.3242375705831404,-2.307082512793877,-0.03756736396665003,0.9004329962325655,0.6482295323364908,-0.14662979565270384,1.336951179677489,-0.46458455162316603,-0.6624092587204439,-0.1544746178445783,-0.07291774675823741,2.3453706767819673,0.7289955670216828,-0.5904864612061564,-0.36977738150862544,-0.4828195447994602,-1.1276366269382323,0.2747214996821372,2.051829538140925,0.5252279353202058,0.9503005455802003,-0.3058271505703954,0.09099490383806552,1.0819253381870921,-0.6603024492339109,0.6807612731479037
169,-1.944236937748758,2.584950458043599,-1.541143099374936,-0.5363023684946214,-0.7024290717535464,0.7099945524267145,-1.2916606586279094,-1.0150903415171195,0.06401345600004699,1.3478636269146778,-0.592607029896328,-0.3857174647522828,-0.37296933320748166,1.5377942002651444,0.10534703117999021,0.932306975832882,-1.5028671139065828,-0.830589633202987,-0.7307978053911485,-0.144164507663923,0.5948960508154458,-0.6074570476784532,-0.05554093255727389,0.6461222847206716,1.8435946517227675,0.545194114601703,-1.8049241813530772,1.1166005000069081,0.3390262913166591,-1.7693970457307195,-0.9782556104266625,1.5912476575594996,0.4730970571312526,1.0367719694089799,-0.7734412019197859
170,0.4316723663151338,1.3962686174445793,1.5716206876451762,0.764236774615626,-2.566820937970367,-0.41382537922866175,0.8256175869784721,-1.864434345434263,-1.2501695748172916,-1.9368110305908754,-0.48053616008460437,2.1027364753484825,-0.03336249100477094,-1.4804599572327664,-0.6543661935906998,-0.7991310431309916,-0.06482128461700058,0.9132363116076798,0.9686484469185858,-0.1092153015715834,0.46098731171729884,-0.14240031011056326,0.3909103625725074,-0.45820758994911925,-1.60428767070194,1.4474353897630758,-0.9227439066701948,0.03543442982995484,0.592187631125299,-0.6386493168339108,0.5051578684772635,1.4850391986866,-0.47020939717684734,0.3293049796921798,-1.5754496617348313
171,-0.5452070917683536,2.0859251605661187,-0.3865897525513991,-0.5320380476183313,0.05062904509256682,0.6035767138230331,-0.7836934101608024,-1.8337370933531565,0.8171387092959108,0.342881919722539,-0.7315657066762039,-0.998770011195904,-1.7613545148910643,1.3227872500157491,0.4801805001396909,-0.16591119100185633,-2.112797852368014,0.9610857340300922,0.09215610560459023,-0.9003092163008585,0.04353989085322349,0.8934979275192614,0.23482059870333732,-0.6733124114205766,-0.9491868809295375,2.7076944542332853,-1.8054882103562826,2.190845781608724,-0.6176622953842147,0.492498950165637,0.7668002813401592,-1.5798887490766744,-0.07213762837070206,-0.3225595718678939,-0.7641106836851612
172,-1.576806552551254,1.811880312333588,-0.7168876619334364,0.11090629465297028,0.7775867825576687,2.192385179249141,0.4920083729096604,0.7133907906588248,0.12780991582692347,-0.5792234355235926,0.37242079515489185,0.2900004957405167,0.8674800165311022,-0.04212540395484433,-1.1752581876438997,0.7495621480647696,-0.6509349704263373,0.34159089808611853,0.29347337545080804,1.176688102949207,-0.8915414786099175,-2.5669653863310837,-1.117449990428788,0.8927997511918169,-0.4153705795337277,1.8944184110404265,-2.6697177525005347,0.715248030606515,-1.2547216172836926,1.6118228192749169,-0.8701526281138505,-0.6181712336125625,0.26031771817465926,1.8319398262218467,1.3000380292914369
