,wrist_r__acc_x,wrist_r__acc_y,wrist_r__acc_z,wrist_r__gyro_x,wrist_r__gyro_y,wrist_r__gyro_z,wrist_r__press,wrist_l__acc_x,wrist_l__acc_y,wrist_l__acc_z,wrist_l__gyro_x,wrist_l__gyro_y,wrist_l__gyro_z,wrist_l__press
0,-3.0288151204043974,-0.9775988295004712,0.2636372144633289,-1.2622752173953518,-0.4586987003322958,0.532471451416589,-1.744483531807435,-0.5876245904416252,1.3639152899295008,-1.3831945152909058,1.4402106775626358,-0.6860802853355701,-0.8308054170393906,-0.08102052582731097
1,-0.743085200961365,-0.3034172104845169,-1.1271772630022316,-0.2601541906510383,-1.5879047902854524,-1.443655546489403,-1.7412742039211315,-0.24016956277195056,-0.005733447187815596,-1.9917054864967576,-0.589815570533669,1.0382348006730013,0.12553621941739213,1.3088247212639312
2,0.12271257112114543,-1.4623636325997198,-1.6872318595257403,-0.06446165188470634,-0.8399624149320399,1.221624791926281,0.0036328650371051604,0.011828333471745169,-0.4463869282059774,0.5279446061762794,-0.8960153795891092,0.9650452017547108,-0.37667337952662955,0.5774996675987724
3,1.137065627251643,0.9446914983824236,1.3280748676624528,-0.2990208559169731,0.5153140599644239,-0.7601067985131119,0.6245699315013765,0.3414322530160185,0.6618445488463349,-0.6235186205395,0.5148915739108344,-0.8504842516124044,0.10850723298379916,-0.4142557827939165
4,-0.21468168245704078,-0.11694500175664492,-1.0222031626079369,-0.3040271446157121,-0.3672304496547522,-0.8692935776779716,1.2909594637824564,0.4205501988690338,-0.3616601579141721,1.8120899853543013,-1.2663304962691657,0.22534196045840912,1.0986035515829546,1.6648046339884204
5,0.5409087540726207,0.02006479386065248,0.05415221665321827,1.1185948859773474,-0.011617826862978771,-0.4140506063683308,-0.44243982786917563,0.5277519041210547,-0.14688933260169618,0.030358360238033736,1.2305273352873114,0.8672530327581025,-0.19670007372954776,1.2021741193459856
6,1.022771692077375,1.1411944399424947,0.34949941155039654,-0.8221298100816834,-1.3207522384923778,-0.32431327711011887,2.6534738600372685,0.8272770188269799,0.09825523863376641,0.09911846604201824,1.684891470469399,-0.06760335252846933,-0.6181335435211526,0.02089099307569712
7,-1.567796545479249,0.3569546559087911,0.057806832274577453,1.3406189500725323,3.3780194210862686,0.0744243166997711,-1.656558778733625,-0.1923201552378315,0.4327063152836413,-1.1801086331254442,1.0376979498785261,1.3108511419118787,0.053118271696871694,-0.4992439416884099
8,-0.26025060094828817,0.37981079806895957,-1.4066562522008739,0.9120031424356108,-1.3443718701413507,-0.7087833779992898,2.300522020760598,0.6966207128126191,0.05391569959685317,-0.3305862290315297,0.16013161034892737,0.823235850910978,2.090822476156258,0.7547943184761107
9,-0.9350917374092387,0.31506828811754617,0.5267072317887314,0.5127732317457726,-0.1394440322945987,0.6670116721479785,0.34408045324945236,0.5930155011084882,-1.0154661741083146,-0.6649373407560802,0.6363529389763485,0.6489737591016528,1.980011908456564,-1.2773063562284865
10,0.6246275585824735,-0.5378588231336655,-0.2764251324323619,-0.41453425943608246,2.0087305510491023,1.4988068215099541,0.8271237125360864,-0.7480698212670625,1.7848721136702297,2.05222072136336,-1.3353401326315175,-0.7837785785622134,0.7720698715156453,1.5193571670481323
11,-1.0450891975535441,-0.38591996468886536,-0.3101494246661113,-0.991077518327471,-0.30802205226607793,0.8769777711243351,-0.5425142946262861,-1.2271046040399616,1.6346634354064242,-0.9094281035304504,0.006560998249979979,0.5757842170797681,0.25528561031572244,1.4412328675449484
12,-0.7757580839110991,0.7345117406234225,0.9567774253921316,1.3865005285858247,-0.3759330694911452,0.6510331885788775,-0.7551217575175193,0.4471272616804623,1.4412493573473095,1.1382313161275044,1.0944340149947145,1.8238305750471344,0.21535763585807308,0.4233696907818109
13,0.05255496142519593,-0.5390437084607317,-1.9746479718090117,1.546157167490267,0.012013455767692131,-0.5669982274179274,1.0414784345654027,-0.9794126838418432,-0.8642117881151686,-0.07212511601824502,0.5992821807049786,-1.1134059492551003,0.9063944320493051,1.502758303765829
14,0.45764547845875747,1.6909944452977501,-0.17435866644081327,-2.5785425147890937,0.7971449234795753,1.2574748130798696,0.5924068830513987,0.014472693619724157,-1.751931593653749,-1.0450169298257947,-0.7255029400761127,1.226612241944489,-0.3412392668153754,1.9593040184183321
15,-2.0800261025439113,-0.8005351469571027,-1.7353724114038342,-1.3687176533355645,0.429322733305425,-0.21468530801945188,0.30760267397095076,1.227450445128595,-0.6454023314745486,-0.8922197987390476,-0.38682199614557666,-0.004156558674170442,-1.9925294058832814,0.5356162388044138
16,0.17278387871508433,0.011748557377514016,0.7635236547147352,0.8368869526332646,-0.5163946471073027,1.399502275684564,-1.3740991351087144,0.4888892160828616,-1.3053917429961286,-1.35424896621463,0.6704912650015341,-0.7212812838848036,-0.056553286267580404,2.053684453044574
17,-0.3687198173895768,0.6635809685345113,0.11757023955592118,0.5241572340570786,-0.11911576054629808,1.190555590825598,0.5592304712436216,-0.8070383542341533,-1.029629242754015,1.3578872805865112,-0.7866023708343686,-0.5335147910544327,-1.4631691883197064,0.20025342812737387
18,0.03873482682651761,-0.45181472322582333,-1.0077340242583517,-1.3505973057636318,0.8961678370544996,0.6071757350808086,-1.216025059467984,0.659868930286257,-0.6647248074167841,0.8044242037071938,-1.8221509489276901,0.9046360701829036,-0.7931997208152312,0.6849588755493813
19,0.26858639616081187,-0.08046331424996597,-0.00562647211617057,0.6398931239914166,0.8271838212338777,-0.6862747812304997,-0.10733869014560568,-0.17632001017276286,-1.6726185138809802,0.6000002064261473,-1.1213068929998211,-1.383415577946938,-0.6680743653730759,1.7641628883724987
20,-0.17902030493043739,-0.8749129647824216,-0.7546173923165616,0.8600105924255584,0.7864153286338249,1.1420504387567603,0.8681562243275763,-0.44739018681937903,-1.0772190642911463,-0.03372433003242974,-1.32322556922417,-0.3092624065911906,-2.1486702382088962,0.4776593300638158
21,-0.526175159780406,-0.18593740873870712,-1.3928547844464803,-0.6529644509784978,1.4146868813102542,0.004392526398763428,1.2288160904317742,-0.3997984838328873,0.8334766830750787,-0.5124327543436179,0.4721581582053797,-1.450412986876477,-0.048606533969642714,-0.28322023168889726
22,1.7655180926847607,0.25611018498770427,-0.3042846599229345,0.9478545792230595,-0.8809656207517867,0.5184447690729101,0.08361335434419845,-1.6747988946987549,-0.2616162710475403,-2.0518956811308655,0.3320880273416025,-0.05209264666197899,1.0008808992632547,-0.7603400426976297
23,-1.5590347066960497,-0.9930885481332322,0.7916026461764293,-0.2311380958842761,0.01906341785663764,1.5007706010029154,-0.1880171264938446,-0.4915792257036829,0.34446561039221124,-1.7338488536355758,-0.3450787223461943,-0.2645163276437365,0.13939339380979945,-0.3112237911000103
24,-0.4725495371007439,-0.6055624273859544,-0.013477788317697142,0.8811158390930093,0.5144355353396123,-0.586061987957763,0.6070698474098816,0.47840946421429864,0.39628410675517073,1.7928534367301845,0.13936577715296594,-0.4981015441733491,0.8644530134507201,-1.00445297248176
25,0.1422312328719416,-0.8510938265406867,1.1864080266956796,1.3714355688254114,-0.7772527859987718,-0.2627375658929461,1.6208846541718898,-2.239130173332081,-0.7149826667927346,-0.21770927987747907,-0.9880949352131635,0.04088880504883283,-0.009491124123425872,1.135703438826277
26,-0.3355186714593906,-0.5429746902224952,0.5442954700405813,1.8517586869020721,0.9018972691630487,2.4583914841805194,-0.04994056075043221,0.883008961916617,0.22600358041034824,-0.782291384483417,-1.733404311835608,-0.4092763359051944,-1.9033349554875356,0.02947578747751235
27,0.6794422487169046,0.33529502976238384,-1.0062431366726539,-1.817562963393492,-0.3766363301674776,1.7865812384470736,-1.0521159995157228,-1.6790613324973331,0.462716523201538,0.29792418769168244,-0.5601970354716255,-0.5302182357270752,0.8923330823877752,0.7517707542411054
28,0.0025052038810823903,0.2701836497123823,-1.8149548164428921,-0.6304017237119822,-0.7649233489832294,-1.0553776699982516,0.7887185555345646,-0.7703585313221268,0.4963720509625335,-1.4707411055317918,0.26534291988217834,-0.3640604888375126,1.3901905641707892,0.8677530378949375
29,0.4459451158390602,0.48202221093206177,0.8396681169650253,1.0448522643627596,-1.206731173115243,0.35515161197989004,0.40277854731557455,-0.42914805293059693,-2.414459471244003,0.5824916953341908,-1.6200426060629887,-0.04551229165688058,-0.07550636933170722,0.22439767389670942
30,-2.404055960977286,-1.7333952798448065,-1.0492761679608476,0.2779581761426608,0.5452462047097287,0.6078989311256876,-0.9285198622290619,-0.33401284915388396,0.31127238429866844,-0.16867231869740437,-1.2547997267163704,-0.04782789472246308,-0.49430660463333786,-0.6052890022325822
31,-1.9109056934529063,0.34656477910498446,-1.4438998706721948,0.48911227130048807,0.8288771628878501,0.4292600126711604,-1.190837420560442,-0.2594550736591007,-0.8970290480608831,-0.7567433025160561,-0.34347329112588154,0.3027284665950652,0.07709372317249101,-0.9863343040740208
32,-0.27346485286062155,0.20807892042124365,1.691156159643128,1.0174603359095982,0.2083719043075223,0.3723317529752476,0.3917118195772804,-0.9498460836999787,-1.0832600297835693,0.45207242114378626,0.9244305670474205,-0.4348335619193088,0.21073691715072831,0.42093745278700795
33,1.191446906255541,0.34805719251093875,0.6761818077684327,0.16551901767614477,-1.3448284645101871,-1.1874069800386937,-2.2398404178345452,-1.5972131964562546,1.0691816357757724,0.4809585025562181,0.3719944725427124,-0.7453066651233884,-0.49689368640330145,-1.6087670959759417
34,1.6071920407706046,0.47989578173590236,0.5057028752653203,0.423069999061055,-1.6472642227394634,0.3890111835040695,0.007843131021612958,-1.745347598947474,-0.5018885256656067,0.10680886778017053,1.2116480006570638,-1.2638106570448961,-1.6142747779408078,-1.6431150916082098
35,-0.41269574468410447,-0.8788934672778916,1.1212390679310285,0.6970824121827183,0.23159070885924474,-0.5564379094714201,-0.7120164792451231,-0.9515109773388157,-1.5265902667567262,-0.394596372864709,-1.419460407655659,-0.2797443032052894,1.816959769451417,-1.4870052068217667
36,-0.4391319380268001,-0.8307062440905004,1.3271402601192475,-0.08397544158339687,0.9825934173832842,-0.28080704570672704,-1.5931664729550103,-0.43645892900681815,-0.07472440905983631,-1.012921141275096,0.2263002986416921,0.8128931113232566,-0.24959762863701215,0.9827502230835938
37,-0.11079663623696973,-1.7195754013260478,0.1897703894730159,2.535560636931619,-0.30467999247221905,0.16486795238728172,-0.08665794178076494,-0.06972765433175178,-0.22703661511851653,0.31766864620920965,1.074067385670661,1.294178282609492,-0.19503771828822405,-0.28206979666004484
38,-0.19119993557191992,0.564042762051275,0.056842373251248586,-0.535159604738574,1.1942334641361236,0.48506518806809673,0.4831696701722709,-0.07035991349056953,-0.4751889627743454,2.131287226294045,1.0990956904618006,-0.6922856079277296,-1.7198140111396751,0.5832759052534968
39,0.6820905218196426,1.1709703886936558,-0.8838189189795946,0.6713803507544653,1.9488010040608101,0.4005501550383896,-0.8326754751893307,-1.0145984632959861,-1.6171968094213507,-0.7266601915384109,0.07819814248392873,0.9266485761399706,0.46112906227363704,0.6112285614765742
40,-1.6345912702427736,-2.317773199051472,-2.200247262561643,1.4366293970201947,1.9954228816096946,0.4868579717884133,-0.18140248744971796,-0.4415666000994832,-0.687888918728004,0.7378383811137441,-2.201479532544156,-0.3344807426578962,0.15658899532300935,0.07445761431749102
41,0.765577210021484,1.848127935823984,0.984928532926922,-0.9855146546733474,0.41537361634659564,-0.30738542290802906,0.593053308723749,0.41700047990403405,0.009130486657924404,0.18653179216249632,-0.11718888436894632,-2.712463133882612,-0.14310806504843288,0.1536599076550298
42,-1.3145454565260788,0.693768673489882,-0.3043040734076546,-0.7576070822908672,0.26206244378967525,-0.4707396409153936,0.40171127085952624,-0.6072051270153672,0.9747569164106719,0.7692365392994934,1.0638599600152305,-1.3837122033315672,1.2698490520859216,0.16112850300898054
43,-1.9535709118130011,0.39065266476894916,-1.626301486739518,1.019418631980528,-0.22304338027358941,0.6138486759572093,0.5536755474686035,-0.15332797325506586,0.2133473185672106,-0.11505996642667986,-1.0303449741190862,0.5547357092448416,-0.52332410999065,-1.0006336851149529
44,-0.6616170015029805,0.965922177748319,0.7835841415010955,-0.011365234422923885,1.065152712270397,-0.771781597576323,1.7756581612188092,0.0074700812659811355,0.3677886131996173,-0.4693531175846427,1.899187122017221,-1.4794878783886898,-0.15034936917396435,1.1683200973208845
45,-2.6284816909888056,-0.4490437462824755,-0.912599619252316,-1.211585879951849,-0.8172697079777194,0.2870979539845833,-1.0904383088279055,-1.3026765370563678,-1.345614722626695,-0.5280493910462573,-0.25584248906409796,0.32649680596882785,-0.09499182938511591,1.6447673223574975
46,-1.2019411865008276,-1.3393212212862453,0.5136727059494959,0.10523868958816662,0.06124223935479268,-0.21373688743863514,-0.0710299185321573,-1.3955098496947822,0.7524123435903963,-0.4749856934237158,0.4644658074945599,-0.5494608413201076,0.7642011317600205,-0.05996701167141238
47,-0.16964218290416314,1.7212061067944644,-0.6925012771813391,0.34464816725200376,0.16145598120649324,0.45404388366167475,-0.33757614342223935,-1.2578893802879312,0.6032609388225723,0.028584797635740407,0.40967914822994717,-0.33932500125695403,-0.8167908845452593,-0.04129925776377386
48,-0.9574467702611299,0.57373773984072,0.16997420002104768,0.6843160036206976,-2.6067220017911805,0.5677769525803789,-0.9288770106940841,-0.4918340117532185,-0.8469743419270509,0.18398398454695808,-1.2776201621173282,0.5364908086527587,1.072573522384009,1.6904713690656248
49,-1.3178200499452166,0.5159927287469879,-0.5811670183708854,-0.03444700931075969,-2.1535421316487167,0.3527926802198951,0.016057134747979606,-0.0461981524260343,0.03792851140339935,0.7685529395147034,0.02231359357256201,-0.20056563799833454,0.5316193815663995,-0.9512867130446916
50,-0.5761504569367691,-1.8560423922261107,0.2251500847052466,0.609423883739425,-0.982977189145266,-0.23117804495167146,-0.4204002480338416,-0.4089678902262784,0.6622626850030805,1.3214522495861882,0.8897672818832051,-2.1305650474423,0.6180350901197413,1.980139251548084
51,1.0645710495960756,1.0751365480104107,0.7705641690193975,1.5287661961086485,0.3288711401450062,-0.6276284941871288,0.48478627301060717,1.1165581367545097,-0.7952496622901766,1.1737638853945291,0.6024749299369495,-1.5606600062124145,0.035388784447518896,-0.20650493790543206
52,1.4129052555546484,1.3691500406630068,-0.5163366684235546,0.07457484753488289,0.15601022601062128,1.982993808665311,1.3577507563829958,0.17070345335028156,-0.6573800354379341,-1.0210828047658709,-0.28702304138256474,0.9279944089294968,-0.25240064471080004,0.23795821409336573
53,0.7843812582788426,0.44094468810353776,-0.1508930186182981,1.3132743093405135,0.008712396167488357,0.6616941198949559,-0.8027628207947143,-0.5740936853490473,-0.7369779973833072,-0.8751189056568157,0.3071913038693104,-0.2477628304618034,-0.6793220414797937,-1.4455520767677421
54,0.20850937179331644,0.5344190154282645,-1.0637602392769967,-0.381009722711408,-0.4868773332211674,0.07337434923089238,1.6680521306890759,-0.7324185472473413,-0.34231555511593664,-0.7761729291588306,0.27917335234958396,0.8135133961025206,-0.7444387930786092,-0.408139523394367
55,-1.232612587172384,-1.0310285451701682,-0.22954108145408292,-0.04699378896008956,0.37536222904043065,0.47339661647357156,-2.1224236076905094,0.809312474474435,1.2196466657054161,0.6294924706105947,0.6764103299405967,-1.7080477947221353,-0.8491577266028973,-1.4222741615781538
56,0.642017401845719,-1.066987088843043,0.015216391241086159,0.26792740316645514,0.8376443106713227,0.7213123362287789,-0.9783102449405535,-0.14468869781946442,2.0953300312168355,-0.3674994393178718,-0.5552281996842614,-0.10969158168244786,-1.7036307389166034,0.4561414607918706
57,0.5902512547906977,-0.2723561578961785,0.16603655608331983,-2.2791732705269787,1.9461302558333216,0.8057252304536003,0.07010380890809016,0.9483584781472003,0.7181982492514404,0.7409062339546811,-0.5151056433997047,1.3174202896876934,-2.204375330515289,-1.0446955634406823
58,0.4601891263506484,-1.225459741746872,-0.960722354846041,-0.29401234605738163,-1.8845968831287947,-0.9829554474820991,0.37484714759374593,0.7697619138920938,-0.6349768860129686,0.8865579429633066,0.4348995221776665,0.7577620299142231,1.0404543414908636,-1.6064809416022994
59,-0.48504528804998864,-2.532762001327391,-0.74210186583854,-0.8854619583435649,0.06477655363996215,-1.2452315757733698,-0.5344619267578061,0.5379956457526808,0.5937573600017374,1.026504450415031,0.1526996618268555,-0.8180085995802129,0.1143508779869044,-0.7734396876948636
60,-0.6832520380478316,-1.2489465138948979,-0.6932283704207733,-0.8477036587977956,-0.23151757372992438,-0.5546135423563746,-1.253709345253306,1.5752661716768008,0.9219583978020089,-0.05443693963987834,-0.44436180117864227,0.017179478939898053,0.42291125313521344,-0.808062957376967
61,-0.7740850537356729,1.2014273223746796,0.5589277669646023,-0.7109010894786624,-2.5452498370953784,-0.20604045792700837,0.33872965952135975,0.25045136775433186,-0.21945056361867843,2.2607858752481778,0.7212949471436115,0.6948002805174193,-1.6315551238550545,1.839769682338054
62,1.081347728396507,-0.17108000517522617,0.7129426948472173,-0.4722919163797353,0.28420225083125195,-0.7190308639347661,-0.15991824735974822,1.1094619262913243,-0.6232792063207317,-1.015514232380535,-1.1986146471279455,-0.6648311641260618,-0.5660752814826087,-0.8352861619293074
63,-0.298907607851945,1.451140214641559,0.37328311291427846,-0.9325570499528932,-0.34941885539168555,0.2580194104931772,1.7412979059606055,-0.6787390822069994,-0.4649512975150149,0.2683891054515647,-0.0630518687626732,-0.5492541930171634,-1.0825294687337663,0.4036366171906777
64,-0.08944616626567774,0.46643896191089046,-0.05345956148809067,2.293061383864774,-0.6884935894058665,0.07930096200032978,0.8255218263152289,0.6753354503290026,0.05362319210229506,-1.4917630005591467,0.3222298839310618,-0.6280835866382665,-0.22866755936278443,-0.4127703268760564
65,0.2895032245152246,-0.018051429350120485,-0.33264896805241123,-0.5272400312424872,-0.05243892263380959,-1.410328187386507,1.1045392114358175,0.9641990138811195,0.4323401646591916,-0.32931582565568934,-1.4686351311680974,0.04553312374111006,1.228205649361871,-0.7086838881349175
66,-1.959646512094953,-0.25478952373745456,-0.6991713358967713,0.12847437493035935,-0.39292252253543514,0.16211544333000114,-2.820962573491912,0.875536074063554,0.5325549612813137,-1.7138809019050074,0.213426498340353,-0.5169155725675562,0.7342654053761183,0.8110870098631954
67,0.8507675136372346,-0.8763918745563145,-0.09432877960343741,0.46485421034980096,-0.2998891129613562,-1.7762864119783814,1.2812551357542723,-1.1082660528614885,-1.0273320570752034,-0.40603640224873094,-2.06749675936575,0.31920106328550973,-0.6323043929929899,-1.1134775015856972
68,0.09241137183516679,0.5441167793936117,-0.7845549156773212,1.8292192653282102,0.47908097906438946,1.00478684729401,0.9060344877469058,-0.5085718392616109,0.361145646334048,0.48735995019744077,1.1675020097490727,-1.3620903164367635,1.5251117816575046,0.6773027608979885
69,0.6677025432640133,-0.5293015742265422,0.00557281608822527,0.409630330876438,-0.996857740893477,0.06903622461085292,-0.4296080069335199,-0.08240773698345404,-0.2713362862590557,1.2908666485729445,-1.3428165933769982,-1.615354978163308,1.0145754744071374,1.0155048973426206
70,0.2688445557648101,-0.4008862317645876,-0.15835949360449672,-0.13903000217445033,-1.4500172002737495,-1.9036555081446158,-1.0595104075565398,0.7336486424768649,-0.2696097714940145,0.06261122250692819,-0.8531712293082774,-0.28592052151590136,-0.9420730375893835,-1.0451294802722901
71,0.9844405135372093,0.07144215020191687,-0.018281191210805414,-1.6831555312753568,1.8371951254440957,-1.1170751419190719,-1.5340387686479793,-0.6219410261310352,1.5651253091730455,0.554186962745738,1.4686050883176751,0.04824087561863041,-0.23601385859680507,-0.5951552205050279
72,-1.6653548925523962,0.07211701724897135,0.6885263664290753,-0.4349546590548444,0.44652144835511814,-0.5799811700968182,-0.44246065858827693,-0.37548754148525,1.2848454862997638,-0.5624934661099662,-1.0605540421409811,0.17919459530135498,0.31067803580421127,0.6045587319306007
73,0.5761489103539242,-1.2062756822693743,0.6984051968806643,0.3901604716395808,-0.3872817083915554,-0.03281355467077859,0.42882565391204425,-0.2586644985046855,-0.1842582152542174,0.48026579362886834,-1.1882756169625355,1.101692405921781,-0.2410202174721143,-1.82887093767881
74,-0.434538878945443,-1.833354613836223,0.5286371179414118,-1.135034637444764,0.8274681148830451,0.3131870791792525,0.6346436218540624,0.8280558886150959,-0.8660250359116914,-1.045506138515495,-2.9787974762120477,-0.07030834353736612,0.024260973037553365,0.3078248853717492
75,0.39825988992286687,-0.7951678381350803,-0.5776276640251864,0.4179409569989261,-1.230929144258119,-0.3468352694070929,2.1252366270861742,0.3847608556070284,0.7253649457303222,1.0110023179173198,0.12685090535452034,-0.5598376876801664,1.101300827690578,-2.2337131256341194
76,1.1343021489459335,1.8100507347474217,-0.23717935380329788,1.5902985473742768,1.9427262535698449,1.0056764146811266,-1.2811497953110804,-0.23244340489880896,0.8402759087157325,-0.17527303143203027,-0.7370956590887475,-0.44663022868267566,0.015341788684529538,0.8082307452501789
77,-0.30660678930850965,-0.6125908109498548,0.2869117474040963,0.19302986867847752,0.6412855611720341,-0.8174987278634736,-1.1215142224719807,0.24095068791950078,0.712126521853065,0.5037592029317997,-0.5854535018061336,0.2968238361691823,-0.317964839043049,-0.19483680376584472
78,-1.5159715913274452,-0.029676131657652104,0.4873993300801395,-0.38021406558539406,0.7810796705831158,0.8939057297803593,-1.1091058619285394,-0.11077738853639266,-0.2124849808772182,-1.3920944863858868,-0.7428297371096868,0.9042432490967834,-0.8101102949135098,0.9664046139748325
79,1.2071826202236808,1.5182400951976591,-1.7907729541635218,-1.3805584032001574,1.271803454418119,0.21201433496992006,1.1201885886711038,0.6822286819583123,1.5302601869620203,-0.06135765721387362,0.18432925020615373,-1.0318017830688206,0.02483738893215245,0.8272345530334322
80,1.4119165471110686,1.4404889232939582,-0.13939978805217168,-0.2055486798341297,1.1729013039538565,0.21641263186909646,1.0846071353543492,0.9970018208732405,-0.5474912467931959,0.47154613886742697,2.000099817475883,0.7547555802996031,-0.5754474107568464,0.10249144540343712
81,1.4623284413758089,0.5970073168110492,1.908589490416961,-0.058447617689065534,1.7069807830761548,-1.953739550419503,-0.5927714935288831,0.514518493111903,-0.7232870476605244,0.08229446679168886,1.6354079046048888,-0.991222588527724,-0.5194756143661459,0.1283641276925732
82,-0.16262923971608004,1.1465854917958966,-0.28656618306465603,-1.3809481501572445,0.9066326003236413,-1.536055339799859,-1.77544843724415,-1.6234869066579092,1.7123516144137607,1.1968616599736943,0.21045201108594652,1.323350951273658,-0.038885692330884715,-0.41374524050657435
83,0.5893289179479716,-1.317471475859637,-1.3264498745602118,1.6131529111366816,1.6982573546921638,-1.7966924080459368,-2.2440386620549173,3.3154494630235063,1.4585456787368356,-1.7944364469223786,-1.3979949547594979,-0.13376089460894153,1.2792344049753313,0.30321218937232414
84,-0.6216557661858693,0.9563199753054052,-1.4465054126100323,0.20691274889600544,-1.074259089187275,1.0898535027077656,-0.20325018151952362,-0.15730403112556174,1.193233197858424,-0.795530279185361,-1.403296696871152,-1.4796076903222377,0.22911683068119465,0.7756491103728097
85,0.8058780828725202,-1.7477179419250193,0.4719249894350137,0.08883605637724827,-0.6847857761786053,0.3817491088178463,-0.12557535137251224,-1.4057447338881304,1.061900955324877,-1.254048454716483,-0.5814860324114278,0.048469787683097995,-1.4848614347528435,-0.6605535677243175
86,-0.05168842197406539,-1.2206652494272592,-1.8248595051641263,-1.5131638676271637,1.1880934573113442,-1.3172893776041001,-0.12003706716392461,-2.363725429095071,0.9230464930311006,0.757211535551895,1.0922510397232363,1.0437358149661469,0.826316569327376,-1.8868145913397245
87,-0.06257853374826006,1.3279957912263354,-1.795928286246856,-0.6629511484780307,0.14918289674837054,0.689964076154732,-0.9993348622926999,1.915631108020285,0.23134697563141812,1.3921120720026947,0.08135265586394855,-1.5355405864284726,0.4298317213777547,0.1864100690247675
88,-1.3130574795128618,0.16478878056923377,0.8518403634057483,1.3609258201872048,1.8928352829161783,-0.5980599675058624,0.2745723249837424,1.8400915667790299,-0.09137974841010059,1.6514188309877298,-1.0160488633008078,0.6440937984387487,-1.6651884300952375,-0.27244565245127
89,-0.4618363329540744,-0.21074788295080002,1.8331253462415498,-0.07385499182269586,0.11028357947233415,1.6187957633234298,-0.013827290227436293,-0.8035182185692763,0.8542376024537264,0.797959079038954,-1.6410410607008266,0.9474843960360615,-1.1258614008335686,1.289067127075852
90,0.9043950497394526,0.3969603597733646,-1.3629056164011808,-0.272500925150711,1.0324333513543833,1.0796953684077686,-0.25041013224984343,0.009131229842294435,-0.7550246826537831,-2.191068446231974,1.8334186757135154,-0.6082342420506603,-2.0679887502528937,-1.98491087185154
91,-0.8822715893351717,-1.8130480643761286,-0.7534953407929124,1.0585448075297377,-1.4283441169359328,1.5476861789991292,-0.4709553263570095,-1.4027845261131775,0.5029800299452284,0.1612498512787819,0.1994209611001309,0.5000535584342517,-0.6000843337766649,0.5317835567354608
92,0.13613630890180922,0.4675161328881651,0.2653701835263952,-0.5424073271039085,-0.3436444037369456,-0.12260472621381334,0.09094625011232758,-1.909481002191184,-0.07621436374809999,1.1711374686482343,0.3503030636533765,0.15713865403551108,0.41101712236997345,0.6652926345206955
93,-0.5936829531568671,2.425131985230969,0.25643906639613506,1.172220695509004,-0.3087310294788131,-0.04295587437993393,-0.2614289770494762,1.4723684367640788,-0.4271208024428958,-0.27062717026913985,-1.60758991443398,1.0677337116563073,1.0476119411497842,-0.6982669671880074
94,1.0358657891265906,-0.8746636734625857,1.2642289515355185,0.6936276122691882,-1.3630642178782295,-0.2944820906532791,-1.0383167943695237,-0.8212267761264171,-0.6225353787554165,1.0181276215408366,0.0374930383840896,-0.35954436928772926,-0.48648831572885604,1.4581079815149054
95,0.14005232767294998,0.6168532904457305,1.5330142857069884,0.45435319061609275,-0.7600600632228358,-1.3041133349007052,1.4906997386306604,-1.5053548348549095,1.0091381708725302,-0.571242267852451,-0.2864248769958401,-0.7785131418777469,1.440361151029551,0.5687066885009558
96,0.5083576499015038,-0.8342689160153718,0.7347913561654764,1.4100018179601939,-1.1918704517072367,0.0942368258939933,0.8595558885958734,1.2828167574170946,-0.02254465852769802,-0.1845516975185315,1.135246756554924,1.3751402602002316,0.18634669722434352,-1.6204493706391752
97,-0.9184213820299867,1.2495721977189718,-1.0664227994357796,1.5140511263450227,0.01399744431001399,1.0926884638480479,0.5977289241388892,-1.191348561219454,-1.590826021763052,-0.8773918160884672,-2.3458617312443693,-1.1653291921544686,0.26805889558919466,-0.6787213951261625
98,1.0069141251570801,-0.4607572840524952,1.0812820614879854,0.24249614459195043,0.7559688922061414,1.6243443050667883,-0.02175383284809772,-0.9564305531706871,-0.34249464502682375,-0.6915027807830223,-0.64271638938434,0.9930548541415167,1.100269297847,-1.9451475553390258
99,-0.7351390763332593,-0.8858818926798226,0.49864514003305443,-0.9734131273702872,-0.8509366527564003,0.6636163368988013,1.2928643910037372,0.6514352223085219,2.5234121533079508,1.6629012018442662,-0.14450295769837432,2.4935361121901503,0.7390762850662184,-0.9093210899229026
100,-0.6130129254964377,0.19752489138860285,-1.4763979281998998,-0.8108890752195885,0.6862474605239562,1.6097016585826442,-0.7008561844683645,-0.32148443220646133,0.28937530118846055,-1.155702732519412,-1.0044690204835012,-1.3382679043988661,-0.5348542101663839,1.523554716935109
101,0.6601649032881678,0.2951705689997887,1.07996045794477,0.6422229076006993,0.3370120251240272,1.0856441479335295,-0.8342241846147397,-0.30086252032104815,0.343258763715512,-0.24806388888172454,-1.3137463090995738,1.763599749315376,-1.3113419885324773,0.9514249969123502
102,-0.2041473588377085,0.5914961010605335,-0.05529451541133219,2.28280655422706,0.41327730794865963,-2.182196641586881,0.6019339464911266,0.09441419194384011,0.7940179240869574,-1.1087279143035507,0.46647037951766274,-0.18561250765361373,0.9577426184360082,-1.4146221479107957
103,1.8074183059734779,0.0288933465418565,-0.42590827468280723,-0.15682110906607374,1.1588677383995847,-0.22187897323983108,2.748057424626104,-0.6482054551374272,1.2952267339477064,0.7939389495983222,-2.2495196594813667,-0.6196015673213108,-0.30681216578467096,0.02218876628142439
104,-0.9296519891078221,-0.3861953528532574,-0.7426275052706462,0.8462101696017965,-0.5781632865461204,0.5933770566136002,1.0877695856786034,1.0903665243169685,1.0069569679929318,0.3740300706055875,0.639825310411664,-0.6976789106523952,-0.12347012044267833,2.6065604675771588
105,-1.2005608710414193,1.2161094082216277,1.153796603355233,0.016304191270439833,-0.7164782203773872,-0.9915486664337129,0.4769713313114186,-0.43831349899911975,1.7132710662120991,0.4208933702275256,0.31483731945189947,0.6442243110789279,0.2694013358582797,2.562638081037758
106,-0.16646571535788224,-0.8112272672139167,1.4576512997084732,0.13019825836716256,-0.3720953383833501,0.767898861511684,-1.9169662821427342,-0.5770582493062085,-0.48496982731056715,-0.25790043414773506,-0.4977432143761843,-0.04092419368401657,0.22659466542880735,-0.8253336624539199
107,-0.7628843516357457,1.6746786517910874,1.0327410380434088,1.6389490109848954,1.2587160246045723,-0.018379428362298143,1.0422468159465217,-0.4256811809271321,-0.121932723891319,-1.434941803021233,-0.3978304501564983,-0.2616407628516292,-0.734287445009551,1.5710324535860636
108,1.33989545308878,1.033587182388401,1.1103059033805351,-1.5444903626289848,0.9225427827736273,-1.5588090760571787,2.257247875548641,-1.4340546931687403,2.2291737126960327,-0.43542462666030457,0.08228025127765765,-0.5327893930890891,0.07587576188607537,-0.47831842464772095
109,-0.3464546354581187,-1.1982556166054523,-1.9588552746076227,0.3429682327707598,0.28291808460858486,0.00912679187022776,1.3866950857802118,-0.44085873769423883,-2.794969120374084,-0.5918362921153454,0.6930816940720247,0.7717971946372814,-0.8005163726794251,1.0487601879935757
110,-1.6385950784271124,0.2389368762091137,-0.46585805086396676,1.1163566867669368,-0.24746137424465842,0.6754569110967905,0.42091843627571884,-1.2826032956191988,-1.1028731734466046,0.18796687897697142,0.862265432294968,0.6403882773959471,2.452615501992375,0.7446826297462772
111,-0.5863726137627847,-0.5535313679248395,1.112618429294559,-0.1743728510972113,-2.4799496892526793,0.8110871079708152,-1.2149566030692858,0.08527032757399197,0.18694958710580384,-0.22240146427266025,0.09371155877594689,-1.0627690170335944,-2.1354938364261855,-0.07591286236190817
112,1.8790057693321238,-0.6739072668347176,-0.8591379120386367,-0.1850840574917367,-0.6166826975576085,-0.1848551524290853,-1.8878386330277186,1.5292447300767833,-0.8297291375764609,-1.2315709787578444,-0.1388865740813159,1.3798895907668831,-0.8201777230048625,-0.11102097320755423
113,0.0419516208686738,-0.8748541667928222,-0.5963954328735319,0.012706873014656261,-0.041227978877743814,-0.4050989372466341,-0.16735187839697768,-1.2899936830228669,-1.4574587897580582,-0.2322018065327882,-0.47996391944960953,0.07004395002856317,1.5299782709098508,0.10971548546087166
114,0.06383117898129721,0.6328631831492233,-0.31639537209547314,-0.22981146671696198,-1.4829202363083667,0.5570754223179862,0.5566548118212137,-1.1129391593513236,2.005287056266539,-1.1063793672590574,2.368863219459382,0.18714881144420456,-0.9855985016280292,-1.1518044371528724
115,-1.7888417089150603,0.05098177298099485,-0.6317201106938733,-0.24017057800362943,-0.3509367073831101,0.3498675716671628,0.7957555133170094,0.9846986308572435,2.1009333102388563,1.592135114422699,-0.08672480811487882,1.4827709351498148,-0.25262918606318785,0.5000615432505583
116,-1.22139740281238,-0.6344806063551105,-0.6293959276307703,-0.7093771237504131,1.179034388009419,0.9598857201828084,-0.9588427245616526,0.17601223407833125,-0.7926202654623863,-1.7298253705438318,-0.5371638980798326,-0.6847211679872296,2.29977859143685,-0.7832959098287686
117,0.5365148799705408,0.40152339289389355,0.013371178784563651,-0.20476761953919131,-0.34721489197881256,-1.4609967594992825,-0.15401228102138953,-0.9600664105655146,0.4930438753354783,-1.231976079973892,0.13726644970580107,-0.910196232403861,-0.8499539705529487,-0.05899144329085554
118,-0.2124006479285711,-0.9534372604601589,-2.8966855698086795,0.7307144768621885,0.2822118570570488,0.49972419789980005,-0.3565050826114945,-0.6263950385641891,-0.9239284798059004,0.6727302930050059,-0.23512819794642673,0.37360215254078327,-0.8245438413254522,-0.004706664656247852
119,1.0232020169169385,0.662317879966448,0.4608289817307207,-1.5518713476381925,-0.12073400607082045,0.3882343169953039,-1.0707370175373145,-0.9300128614902192,-1.3340393477549952,1.2038829291053061,-1.466275863033486,0.7552927453151879,0.3996619743605737,-1.0883371015968863
120,-0.7973279860116411,-0.7411011164026053,-0.5583418084225591,-0.5643354550043171,-0.12326273307709158,-0.020678437087718018,-0.6635178963995637,0.07530110434846465,-0.1142602247888417,-0.645530519058129,-1.2935710687685724,0.7224429921333131,-0.30072298513168105,-0.7597543566940888
121,1.1119197380063308,0.7561676590164685,0.6666651221019785,-1.1007223275863534,-0.13083962951169764,1.6273888476764842,0.6537049429038106,-0.45954946958234344,0.3114245746912457,-1.7081871267573094,-1.308906046702596,1.101988577483819,-0.7839280490926,-0.45379415877535445
122,1.4915223070198917,0.41598699718182985,0.39571152275676413,0.020553101066547837,0.046700864128998806,0.7122526615244704,0.7292707876928093,2.3596099167572966,-0.026104897820981646,0.8943210006606814,-1.14763255181578,-1.4392307834746685,2.6396240750278213,-0.570470857645161
123,0.30531310061321987,-1.5160250737455612,0.14199246637890298,-0.4203267666556456,0.716564875037889,0.13288354878295358,-1.2329525593655197,0.23054173713135628,-1.2123698955420619,-0.2036676909353065,-0.21220708938308314,-0.3017302954564223,-0.06094688854579285,0.03500723948224848
124,-0.5490224741945643,-0.2977390135411131,0.12450262470360524,-0.4994323903858837,0.6242945558456044,-0.10379248608119912,0.8243840399554611,1.0166110787267189,-1.601111788603484,-0.8926454845352818,1.6909623470775281,1.6846946737812802,2.1537037393887024,1.1059980909077105
125,0.8748659881797444,-1.3383060201814923,-0.8902220640869944,-0.18043208678481426,0.02953827070546623,-1.5116138898011235,-1.0516009412470924,-1.841875512691479,-1.0041536957673565,-0.8536157146083883,-2.297964144331508,1.467835920036545,-0.7235967039031823,0.3833049016988899
126,-0.3833934797327223,-1.7011944592409767,1.3638804180732762,1.9160203085207044,-1.2996678593429394,0.8710168973707362,0.38751097903338805,1.4584627953364617,-0.24676503280722853,0.5985666802098527,0.001954072857073287,0.5541247520929318,-0.6944049696567848,0.1283015905172248
127,0.7923772661574894,-0.6086112049990213,0.8386085154239524,-0.6781996985848919,0.5015493047982466,-1.5368775293235373,-1.3377910366421362,-1.5133966793014457,1.0526131303016728,1.485007295583265,0.00757270904172751,-0.17964957341967716,0.7675630096645043,1.2311327555956866
128,-0.3223017757080779,0.7226948170610185,0.8245519643270353,-0.9246509523750078,-1.4171937124003793,1.7043464491289002,1.7619274762154629,-0.41339315684601696,0.2694413016634465,1.411344814846351,1.1679600204222704,-0.3733247598655339,0.09035411184306866,0.42748391569972977
129,-0.3760273284544879,-0.8262897520639453,-0.32590272560711403,-0.9321342002804334,-0.1569365464482175,-0.9780783922580515,-1.1126666731883972,0.41347935542719505,-0.9691474303437921,-1.4486495253332443,-0.19090188002626465,0.07655152808107164,-1.7967860721821516,-0.8839715677636506
130,0.42265106048072265,-0.15536318369668248,0.8642831235706016,-0.7502875309370505,1.6506631388019373,-0.170472922313848,-0.6312076561919626,1.3205802414777863,-1.7742796309994857,0.9729347339836616,2.3372742271913594,-0.5583966319738826,-1.176855953770054,-0.791347631985167
131,-0.1403375487633535,-0.2552572320798665,0.6274586487844511,-0.08776085829206884,-0.022182780446903007,0.38419429014644235,0.5337669955620614,0.937265881150572,0.07466422567594393,1.3760590100850687,-0.5238072542983822,-1.6483717868148877,1.0193319871510926,-0.2264744653346348
132,0.5368006664162357,0.9756905269610595,1.0767607587654047,0.31668308602692363,-0.7240669783405325,-0.0012242180330868692,0.11215125141647263,-0.02611017165990363,0.2526604954586768,-0.8500050257484917,-0.6278315161092403,-0.4013826009311173,1.125668115031814,0.009004473596873095
133,1.2526713704254169,-0.6971622150459535,0.24647898699289464,-1.98991976441901,1.2953989600810916,-0.6261748201030201,-1.697611131982437,1.1677125132854764,0.7920883014075863,-0.35095626036761385,-1.046471176705978,-0.01320818481949604,1.0035153863118391,0.6986740233133637
134,0.54535453634176,2.359951796284004,0.5784734421721572,-2.2321241106113336,0.6398126733815679,0.8717542500344154,1.310000655796467,-0.3768292594739211,1.6283606997439213,2.2815472813345026,0.10675488580442904,2.0466011042797887,0.4591039831450445,-0.13343158199158664
135,0.8601253624149131,-1.3730410521151974,-0.8948553218866137,0.8975344663326653,0.11456734304534817,0.09499558445179193,0.23451923450134787,-1.1116209694351842,-1.059923733000149,-1.4000328276559217,0.41902556630164844,-0.4395363410039364,-0.7993574139729803,0.32123175748728255
136,-0.5125252733556253,1.0032943048585077,-0.6437546417261881,0.28209738397446016,-0.25326957953204843,0.47834431116156545,-0.8883256690289523,0.7253457734543484,0.18898965270302526,2.843757896891079,0.8536185860878421,0.09353499106527693,1.1687581996166487,1.030470504786866
137,-1.3380781344486101,0.41975405256315707,1.1740446314728392,-0.7623952795758867,1.0826985731736216,0.5760030175782612,-0.757186112546355,-2.3491082774766543,1.2032251676160906,-0.3301028350014099,-0.7225546689447657,1.1015553569165448,0.8261843409927593,0.6367087056682645
138,0.9402459583136104,-0.2111870529476965,-1.308552030651344,-0.10678141080322277,-1.113537840740662,0.8378409576368767,1.3287752411152887,-1.385806293765079,-1.6612801831007378,-0.8022069363141042,3.238479854511491,0.70845089617037,-0.45230015766338927,1.1144750788209723
139,-0.263196711228413,0.984269273759841,-1.4049511778638413,-0.7725928811503615,0.6425541187387517,0.15159810692072928,0.9196810785198875,2.144165534383303,0.7057243109709914,-0.4893457091628306,-1.9999380462256067,0.476404931437796,-0.7002843373458034,1.2856948085451063
140,-1.5822558470130068,0.8379517859894757,-0.13136352966599968,-0.20689906435799757,1.6393641499017186,-0.4431762470325449,-0.5134153209290861,-0.6339640910687956,0.5076165700512397,0.878122183850388,0.34144299541687384,1.1871906068903757,-0.36923968715715744,0.9615742359870038
141,-0.5152114008163263,1.8866959503130132,-0.5840848201538983,-0.2684922161558155,0.4449018084292682,-0.8942242190461137,-0.6095576591705876,0.41311452224339285,2.351207044018274,-1.1338394610621019,-1.6318901865630469,0.6389870645449177,1.0617887664336754,-0.21315247471342222
142,1.1614929123426736,1.7181075830471408,0.9093238372948899,-1.3921790230384947,-1.830830616090922,1.3460421147411707,0.6694328229350018,-0.42167826556237076,-1.4946253283380657,0.0312875850155452,-2.3617016307158125,-0.2445227499469061,0.5696623166621176,-0.6722724195050169
143,-0.3503615392667726,1.5392618111455991,-0.898049709180009,-1.741287062395972,-2.0609327070981327,-3.0851129589873936,0.19328313271247088,0.6521445867212318,-0.11208640069167071,0.6062049930510708,-0.6753031163709216,-0.6457524879621465,-1.0923353156852647,1.3040002928790595
144,0.15489126503584222,-1.0111649413386148,0.5855707751934428,-1.1553367684524602,0.29563150011384587,1.624227746257238,-0.431378964203528,-0.06643896277264129,-0.08171064581514834,-1.3682067689959807,-1.9637162610042054,1.7852382855306892,-0.4869250323521644,0.9909691983182655
145,-1.8849663639916114,1.1071863237740958,-0.06382126033516339,-1.0569084779183997,0.008545506066674135,0.7910798433627716,-0.5745616190059208,1.2033840602865695,0.42155958550164874,0.5821678839650006,-1.00917654357212,0.7394610193692409,0.0015569583477543546,-0.6022713543784488
146,-0.11673742948736783,-1.1999226082811665,0.43655032350920553,0.4414104324640819,2.188299329769054,-0.1276260391693584,1.2345104707930104,-1.0078260069847034,0.25340980709127525,1.1538881203551101,1.444767325058751,0.6780081873861037,-0.00909761314888615,-1.505983038128622
147,0.02577007426680287,0.18747577571388893,0.5594608578172243,-0.0859876706098386,0.7234770270545618,0.3147464092878532,1.5735516157700613,0.46425186583469275,-0.5208242980132547,0.23570850466549584,0.6344156288589723,0.30347522550447587,-0.9463419379567246,-0.28628174232516485
148,1.0217890684460642,1.2648198364742027,-0.33929501337944445,-0.5968554056105256,-0.7493375513671959,0.29741745086821886,-0.05835395221914831,-1.073294393206495,-0.8117306755914796,-0.45233414782229997,0.47911265036143347,-0.603486898661884,0.09027358822534771,-0.3336387527446023
149,-0.5048134006900123,-0.19360319947169272,-0.7214376325815856,0.44752824257029233,2.096743994542215,-0.2105350404017985,1.7293299546966772,1.5089576167352432,-0.3938435262011535,1.3621910016012067,-0.7315421909612362,-1.2173582467840856,0.472348994426732,-0.8401118880825542
150,-0.21261712856056714,-1.1497202744379222,0.031358768295577245,-1.2317264385611348,0.5131417125578075,-0.9808413064739288,0.22994530790160803,-2.553003226482258,-1.7822464082448783,-0.828903105601015,0.8669893866952888,0.009834655877331878,-0.8495955683703749,2.063330765772775
151,-0.1791033056503788,-0.36071634713273637,0.07205634310525712,-0.5993014824565162,1.6027836974551581,-1.3345171316410178,-0.7273185925648503,-1.9222252206000703,-0.5543634616507037,0.5183050829129345,0.14153994561241756,-1.1772246792841967,0.9120048015687335,0.15627405131800431
152,0.8484955552165793,-0.778452002686405,0.24558472530146658,-1.264003034391011,-0.4217647305539674,-1.2039687170998867,-0.38699910565805246,-0.5469868454364982,0.06608199221541097,0.3642380247645608,-0.9896150304215939,0.0046312507781164705,0.7911213897757678,-0.4628412084407464
153,1.7277230317444812,-2.0955787436010436,-1.1458614400105673,-2.3162340863268187,1.9103781115585698,-1.5941223186045081,-0.33690042601109416,0.9393268947123622,-1.373844850580148,-1.6596649609753131,-0.7948523592899961,-3.1888141355249404,-0.7194073126262958,0.9949062584985426
154,-1.539315404471294,-0.8249355544970538,1.2023005229675192,1.0683833881724927,0.8877060234869467,-1.3486876516173378,-1.2152867974809913,-1.6846475491148851,1.424474113002078,0.1428729763090644,1.0902851188540779,0.0839576246662895,0.08166549702703323,-0.20334304895455904
155,-0.20553424456119282,0.15554263501966276,0.5139046070123023,0.5877804750154354,2.4042693516448477,-0.1760929786918895,0.8705927249039973,-0.10033945316861609,0.5334990608917548,-1.0213912780688972,0.17051286846573055,-0.8437608075995403,-0.7490823172463087,-0.31207347423673404
156,0.40349162696567065,0.18275808862760584,-0.896744757345716,-1.2159380409453326,-0.18806975499913278,2.271241343507182,0.3538887495363242,0.4459479874137654,1.737341267263637,0.41520264243709826,1.1018057373786827,-0.10879973934344774,1.6993419633262263,0.2295657197360577
157,-0.21224350842203413,0.8468474040235848,-0.11079791364947024,0.5696792606895625,-0.5851415367761863,-1.4781164809662792,-0.8565298487868153,0.6196149379332402,0.8733247805594808,0.33574610857517695,1.1461733223875086,0.2444548977184287,-1.1387640884974515,0.5260191815858869
158,-0.4182000961794876,1.6240675557988007,-2.4491014025297053,1.7981364812277263,1.478486167249176,0.5329287499649211,-1.49366391142424,1.0655208284512812,0.7897783609974687,-0.2863061248529927,-0.08380765949115634,-0.38772409349855685,1.816029123703137,-0.6308798752872062
159,0.16272097332100877,-0.3558145424871284,0.28135328716048885,1.4008006343596675,-0.19404093705341297,0.23531355089571443,1.8750739910613192,0.2671976057362181,-1.6449014971654448,1.299286303607573,-0.3558845733256225,-0.7469787437423863,-0.05451633291591374,-1.3040115053155419
160,0.8472064716484263,-1.0475326545153165,-1.2911363477891562,-0.06856780425698221,-1.5180008003978083,0.8059254036150157,-0.7818427102442536,-0.6157157438039667,1.6418548307023413,-0.5420886764859187,0.5169589557668683,0.5498398306820473,0.5368991595681415,-0.4082352010483766
161,-0.9942633347320093,1.4417828196086961,0.26862022434393246,-0.45393602497331464,0.19294410472973217,-0.35670596236822283,1.0484044507415722,0.8393131093029237,-0.31270674047283764,-0.8608569819302455,-0.2518197465571816,-0.2061404776788423,-1.6271613059190084,-1.375640470726861
162,0.3657956636208934,0.8145469914976425,-0.1392003297539372,-1.347226000633968,-0.5265028803889806,0.6114420547864102,1.5054792031844975,0.30044302231420716,-0.0013711149311271481,-2.3613601375033326,0.3949889643350707,0.7110741358792453,1.4492238595478666,0.09492394721314683
163,-1.453501647920014,-0.7245187302100019,0.11868707937187901,0.06161865839586125,-1.9616366057228969,1.4306051986034711,0.29148834793367356,0.966762850332604,1.1429728458509847,-0.028155325247141035,1.466939623837816,0.054335732463684845,1.8265079388117176,1.6541986904193804
164,1.3947736023441972,0.3741421153620243,-0.5952216396369941,-0.43395781394121963,-1.957895188261066,0.030980716433906555,-1.589722331616436,0.969028705067915,1.5077347272990473,0.8554191956529472,0.4565206188735061,-1.0534655438526601,0.5594793738197914,-0.5058717562239536
165,1.078481988484873,0.21646123747084925,-0.39653331424019095,1.0099028973363369,1.0609208227083446,-1.8508029885761261,0.9940387440618313,0.17827099526887794,2.3383101745471095,-0.7926535032688672,-1.8359922964482964,0.3338559913808107,0.6994593259165496,0.5294437132332127
166,0.7403267643070924,0.8062850373818649,-0.5973984202598907,-0.0013954907974113918,-1.6996333241692496,-1.7670985118507814,1.4346574885471428,1.3653158777157344,0.39473443056866464,-0.7961832601651585,2.0739082757098157,1.8828962594479515,-0.2739007270946444,-0.14492816751028592
167,-0.22702873903270782,-1.6615431280670996,-0.2958979903985928,0.10107888924709439,-0.2995247912542391,-0.6329869053429394,-0.24500191059931084,0.7956478535986854,-0.3491121298189813,0.6043760444996699,-0.005891819255316937,0.14500988178604632,-0.5457764299271929,0.6266100037070942
168,-1.4195057547347905,0.24607381961829894,-0.5989412411307363,0.3264871723541125,1.2589302421427235,-0.5491765594843661,-0.5209492232448263,-0.41599533528297933,-0.20311832172678612,-1.412910030391099,-0.7112802353068093,-0.015586578885116161,0.5288469043315127,-0.3116457901749205
169,3.0766696655476595,0.48496414672325694,-0.5172115678215268,0.2769234693793362,-0.8121631388238978,0.39462583970068055,2.1593200155618875,1.70454722541199,-1.4722373385719554,0.6298811281482635,-0.4616972839088196,0.13989021951908653,-0.6504020183050834,-0.4142267679749425
170,1.257905725686188,0.5707948817176078,0.05256261449269342,-0.3038815645827635,-0.8479840566520385,-0.5352677943833551,0.16418803466163212,-1.412021802448115,0.170285376019157,-0.0040222922059503724,0.2369894231634053,-0.5652659284382178,1.4746361703692055,0.17614190278751635
171,1.4303759600806027,1.446267053495331,0.9257855693769698,-1.9168078974388756,1.4039359400257305,0.46771260201777576,0.22762957712515627,-0.31999560946519706,-0.9463661448564122,1.1437285925794813,1.1818359676266021,-1.348170485055299,-0.9896967445323596,0.5526567103702239
172,0.173475524634572,-0.6778708709055269,0.13850163698721654,-0.03282087446049987,0.2475281311159309,1.6778748753271666,0.8218602936488995,-0.5988541328215314,-0.13470376675081636,2.400352515952744,-0.6711502645902714,0.6336758002574785,1.3615751452976887,-0.12414294898841133
173,-1.5050753273196693,-0.9729310497446122,-0.018573622967978397,-1.0338870924458794,0.3811833695373759,-0.8381997018029045,-1.4775883111200765,-0.3092325317360351,-0.03733574532771687,-0.23229141123357863,-0.16033686745840217,0.4282110999571752,-0.12143175142566742,-0.12832185692056708
174,-0.8527815625945077,0.5402229460664856,-0.36939148181949616,-1.4173287014474556,0.0657056813774922,-1.1700043832241667,1.3554510177575936,-1.234089452000107,1.900785891580101,-1.1199180650377005,-1.4453344789819116,-0.5469922438638838,2.2856639911843617,0.7513664015908365
175,-0.19214638449156887,-0.7133064760849073,0.12693826417480553,0.2248300998778398,-2.112463568745624,1.6013581441831963,-1.480524933472046,-1.3764491611373197,-1.0888274869452041,0.9882480319320734,-2.077117285811382,-0.9051089087461528,1.4439942998123376,0.8341028064663787
176,1.0800865831270656,-0.6853456255811197,-0.17540640513120245,-2.0405234506374237,-0.6697181947158941,1.7278325517909887,-0.12437918994558984,-0.40036523632015375,1.3680794923039932,2.104025804066242,-0.45240068777230086,-0.3946447312669278,-0.007862119231642551,-0.7203152633802329
177,1.3082228579405095,0.6244485825953532,-0.9328192489016979,-0.30204862948000544,-1.4494060738729226,-1.1358756782318618,-0.15662191063512698,-0.44477322459576796,-0.4444859257668669,1.3135240866850209,-0.6012011156390408,0.7121418312032777,0.6961632992178258,-0.7430851708925185
178,-1.5143530181942186,-0.4365570806155555,-1.750185472532661,1.295321739095777,-0.4689985605692721,-0.31256786712507156,-0.5276903038478301,0.08521316596274228,0.2522690764007092,-1.1033310524748614,0.5972629110475998,1.158710293481828,1.4040951010418845,-0.27581694902563564
179,0.08174474127343848,-0.49904749027852935,-2.3677601821850502,1.3547056251473726,0.6449645068936355,1.0714077174397392,0.10438362685015729,-0.9779484063106816,-1.2401000564963942,-0.42871107643610445,1.3432135009405175,-0.2421397737281378,0.7754456014782068,-0.2819787325749082
180,-0.6596136240691726,0.7314883190994725,0.0022469974209861176,0.4306631033164649,-0.8393677078234231,0.2062885240742454,-2.3208347743686155,1.5631799187140714,-0.015956551523503257,-0.9455886715323019,-1.3613458015463173,-1.3080346138962198,-0.13461902274446746,-0.09286847542682766
181,-0.2235081366417092,0.7934023723095924,0.36321218890155355,-1.0989130672717429,-1.117399840684282,0.6570464861980243,-0.743474519590391,-0.35866575222577907,-0.30814129862103495,1.902738172772048,-0.8913520655736259,0.35078271518033727,0.6080309497565805,-0.549399311762526
182,0.9521191886994458,-0.09021829378952179,0.6913128012562567,-0.4094349554368788,-0.3558745563982508,0.16079529792891303,-0.13011085315737136,0.25524408984834857,0.9455549300185777,0.25238939593638393,-0.6226140915312547,0.7958344969369565,0.5015374872005641,0.8949162320860783
183,0.0853928893680064,0.5656782631694006,0.2202877728017598,0.061258127550891994,0.8389566338196046,-0.6189424523791566,0.2931541883147974,-0.2789745614299769,2.2472919963268083,0.2941133141111272,-3.461530969626985,-0.08854071535923656,0.6985375660547224,-0.3807055100710225
184,-0.2703374535265793,0.8799504501568682,-1.1055951224062686,1.5219157083730497,0.4431890298840825,0.46290096013034,-0.8924896436210297,-0.7150044582085493,-0.6772022167379776,0.7437636440550165,-0.7038296484250784,-0.9224540937131939,0.05551891039209896,0.3406763017981362
185,0.3433189261504282,0.13492027204722754,0.425600511089189,-1.1909667038895992,1.6004502172094235,0.025018404989803164,-0.060107384378041,0.8234230764858067,0.35281768172505595,0.5161094504235508,-0.5686791625214254,-1.2114077150848057,0.03991487343680865,-0.16184247243410452
186,-0.3375767770054123,-0.45814744232302557,0.06947869220492531,-0.10227821357996206,-1.8337474383089656,0.44806717645888705,-0.3366492441901312,-1.7356301920651178,-1.0171635831634813,-0.3005685896876076,0.0437202531670093,-0.10686148067945404,-1.1839160920682354,-0.2286170790560869
187,1.00491608096839,-0.5957468833102681,-0.3663430607000655,0.04051508326628847,0.8329617659874244,0.3449131780536938,1.4148872673042963,1.4794622541844085,-0.6714815967401953,1.796926601767565,0.8833631419537946,-0.020767541043079023,-0.7788177425463032,0.5017957502221344
188,-0.35196566472604807,-0.8006793279037984,-0.004822030871159281,0.128874207982828,0.305569828129752,1.4957654850903963,-2.460586987126386,1.5524880184140553,-0.575132702481694,-0.41102824925160364,-0.7897115662596632,-0.14001618805927146,-0.7887636863087636,2.938143992705362
189,-0.4326087733638672,1.0995680002892432,0.01579595584463613,0.16239541016842438,-2.9278944796521977,-0.9934748119933127,0.19057639536421261,-1.9957654851156403,-0.8135725761009105,0.6678223700808086,-0.5724641856901523,-0.11463205866752624,-0.29802438908880313,-1.6274101106558279
190,0.6482422898082523,0.27522691079312867,0.5866004998853719,-0.049977406436285766,0.8578115429692693,-0.6685320732144454,1.811018464797234,0.5031307957193117,-0.37154629356090874,-0.750463363604123,1.002330259000606,-1.028139797680979,0.5745071915103678,-0.8616287402674591
191,-1.4048205945339667,0.264163687698893,0.4573325743538225,1.7832884870527004,1.020849195292198,-0.0010912660222965002,-0.411348598863954,0.07592043429479249,-0.24961174313798254,-0.43595230796433626,0.6982179402493897,0.6497266540086062,-0.6899488847120485,-0.019635575172948443
192,-1.0572746002877875,0.12489906678756492,0.6355372631963961,0.7507545911429125,-0.28656665734018794,0.03236001241519752,-0.1105156381102543,-1.0482065908846845,0.6291883200234578,1.5230683292261036,0.6195674637312553,0.2739128285743732,1.5140111378449164,0.1799165457465435
193,1.5421989820661788,-0.1775205190682593,1.1018939608412632,2.041829412099646,0.5536164635533609,-0.954135858663235,1.508542998653258,0.24424362004736364,-0.5748645919275754,0.5123425475771957,-2.2691445790988682,0.7641956142782104,-0.8820918271129149,0.19451866611232754
194,1.346268996802935,0.6046924801666753,1.0421012274608221,0.8950147114109236,0.02174792337161126,-0.077334855004605,-0.46235524436101555,1.7650045228493363,0.41244949759827976,-0.6947601185897918,1.115463570537861,0.907009888339699,-1.4573305052229095,-1.0603194432322518
195,0.26214113744883005,0.46311483774042606,-0.2902786627012853,-1.0040058406641694,0.811486734574892,0.7602013201411902,-0.04324989134783909,-0.7612740477544472,0.45360203581749886,-0.5720637176610477,-0.8654624099485616,-0.3707582850646945,-1.0249438997305311,0.4809741192725878
196,2.026919551068906,1.2532632632313783,1.0256297386321154,-1.6091700583678523,-0.6869566104988009,-0.4386926922978697,-0.8987184647189292,0.8347932639620674,1.175962853356236,0.03493921040965189,-0.894242333252788,-0.2908633711740359,0.04516167531494947,-0.8730825276585142
197,-0.2534786322715223,-0.10093500808580184,-0.2905995752452109,0.6217850806128941,-0.6171409819357249,0.7280370288821955,1.1521487688237022,-0.039240596075229096,0.7324590382098247,-0.025879652318313726,0.3587401020042542,-0.6354819772307202,0.5561839617635986,1.0872538788636061
198,1.686165081391233,-2.0292927150702544,1.2370105760441663,1.1372519031085502,1.8202842756874344,1.2286067304305597,0.09955920297455925,0.03244094029748577,-0.41572126951454186,1.3665735272579778,0.1273584969694749,2.83470035547877,0.8943596212260981,-0.29372090237479165
199,-1.4998566054073634,-0.7327234857456955,0.6031426034427264,-0.08990634175731159,-0.22188711950310172,0.9088325719283626,-1.364787564122946,-0.7264597181267453,-0.5695093818753078,1.020375050250084,-0.016275339358368363,0.7978971592397943,-1.1185289715012687,0.07899875714908457
200,-1.066276117573344,-0.8856219419666622,0.37944435377747,-1.568371208806573,-0.12221604679926908,0.861117162294916,0.8509249174128164,-0.5611385896993519,1.379232756576966,-0.9220986028204344,-0.3867094510819605,-0.2842763104251568,-0.7230011324712093,-0.4287337601919954
201,-0.8168504382205004,0.6782946462115373,-0.33581759655606397,-0.28897650626345517,-0.025928718407745938,-0.28405146557953276,0.6196346786336979,-2.8774569006912087,0.5846286586476307,-0.36220645885401875,0.7192046729984204,0.8806804061191402,0.39327578275463304,-0.5807682286086869
202,-0.783935523035237,1.5444402667659862,0.13346209912072005,2.270369754201172,-0.1464545619691735,1.19184276453773,1.6405888774023278,-0.8555001638006867,0.35515248577440084,-1.2236819388919944,0.015245800987917833,-0.3552026106365455,1.0745548440811898,0.5046918206096789
203,0.5846107778449876,-0.26210150195146853,-0.5870275230653441,-0.40878406963243324,1.7538729045125039,-0.3655495326148388,1.1768112278657863,0.28814145000151065,0.48390603491953155,-0.08287122958762158,-0.36456544489008513,-1.1112471444181387,1.1309727872052415,-0.4387679091897846
204,0.8562471875120558,2.1787765349597104,-1.4476197890051317,-1.2247941632393962,-0.24360366077287762,1.0299391674995018,0.10806527075285223,1.36394544708071,0.9236301744569386,-0.0063728879904306895,0.20532865222596655,0.8917274734728873,0.626249678889333,0.3964299857292734
205,1.431531366768204,0.8760694557884934,2.139149558198785,0.3845936221430801,-0.024203900106428238,0.09239849289568525,1.1491943378752698,0.8331367126358694,-2.0163551841798455,-0.5473974108904193,-0.8151225375632305,0.04165230988563456,-0.3107528524546386,0.8237981663082924
206,1.605544170477091,-2.70444192431395,0.6725980532884378,0.2201284721771819,-0.24979295037594965,0.02355298875283852,0.03769330987018791,-0.6080358469458585,0.041506728513115876,0.0710109679532481,1.3652491557774669,-0.533313586080889,0.9849949044610216,0.7565319304389078
207,-0.7062690577571125,1.8538024931931776,-0.824212798356435,1.543027631843203,0.06474797384268093,-0.7268932337747047,0.0781261086945989,-0.37910440895407826,-0.4091694977747367,-2.8666342356973447,-1.2081272244192776,-0.10969716498628539,0.5739899376268661,0.564097904527427
208,0.4812111740415241,0.4058264095939365,0.03844485150434228,-0.12605828223767787,0.16756816286406523,0.10065149205447664,0.7044020493725063,0.7479266717819765,0.5019269955973851,-2.52649113264274,0.22687468016160064,0.7194087727948284,0.43119868236835857,-0.525744777240592
209,0.5766585444052653,-0.2084379536800252,-1.0298630530494715,-1.1168943748086257,-1.5210257232765154,0.09816170834582232,0.2583018320612363,-0.4269517175414196,0.9851048971828644,-0.8137663671780556,0.7355617683718282,-0.12553922731904296,0.2013623820097104,-0.04854233721097889
210,-0.8537986269786573,0.16654984921933902,1.3012796244363134,0.6486676115909039,-0.3107874654786585,-1.0429284202203304,0.7944489084153322,0.5999520545649663,-0.5911979495895145,1.8852146998602923,0.021805655274215165,1.11396686459641,-0.7277895026721205,-0.09790127744129853
211,-0.3615660403781643,-2.9742102654155484,0.6138090545070545,0.48595911878597087,-0.4686641135443879,1.6724181889191565,-1.0473027823558305,0.8268532739061967,-0.4378849437361623,-1.6199910199519627,1.5615937983468255,-0.2012442221482009,1.1109069306200086,-0.06904225252187993
212,-0.7462534454655283,-0.4861785823309266,2.818151412457383,2.75924416476893,0.5939103849833037,1.1708765668999823,0.34285799271573975,-0.40264163676003234,-0.8443711571412612,1.8329237779788752,0.9331276428811811,-0.8616423915770893,-1.0929021002374102,-0.3199767823321642
213,1.593112103954913,-0.8891239168730222,-0.6472946586511316,0.9602076406169784,-1.3490702732539894,-0.8439984517242592,0.3644323430119531,-0.9212789137987989,-2.447298814264985,-0.9063609885598682,-0.2922106209283707,-0.16416368437764048,1.3676472322579845,1.5868871597594056
214,-0.9121241663593352,0.2559101537526474,-0.4442997040544157,-2.1685783400432785,-0.6806296855919464,1.4036174067180698,-0.795282681917198,-1.048612340734035,-0.48098460310631735,-2.0341996226792567,-0.3333323445238801,0.021490902060945893,-0.007004365561893074,-1.2160324146727692
215,0.09758222912930496,0.5154500256261435,0.9069846456637081,-1.1754511532781304,-0.6145240300850187,-0.6095688132300747,-0.8505901245952368,-1.1278218574154397,0.007218192330451432,0.7470404782223947,-0.09880471483465529,-0.4662398234000235,0.6487452155299936,-1.4121678263442052
216,1.5090632728194233,0.9209938853250389,-0.9827057098368968,-1.7341011695967914,-0.8631316211709457,-0.759004308621403,0.8794015161736383,-0.22424851399172024,-0.32811180073648577,-0.23325015774702382,-0.11035728872808208,0.6155273829514956,-0.11810204152341429,-0.3669998492542092
217,0.5797237852846446,-1.12263048557318,-1.765994536670372,2.0251271962380533,-0.13013298847469196,-1.4237044390889144,1.2618854636366814,-0.2586940336449927,-0.13055565224082674,1.3847444261640498,-1.8784794765961912,0.2723747421701316,0.7976468477502024,0.10004765409568803
218,-0.9418661483464434,0.6725617624819415,0.4596527206794522,0.17011704513659373,-0.013012434458747228,-0.5011195438828412,2.8591007192502578,-0.22185481673902213,-1.2637139826871246,-2.7211653783198657,-0.1906212613181774,0.5989283260477566,0.10225338464549784,-1.2903259756785697
219,0.1905885840202515,-2.0181839043650376,-1.285741178310797,0.9222913995197518,0.19644064561600438,-0.34859327621697994,-1.6046386419986898,1.1124645309678995,-0.22823206554971665,3.4556094248646336,-1.5654270020067433,0.19476784867932892,0.21510298248282195,0.5605066716191928
220,-0.6397198986237462,2.3589308361602783,0.5347771878005979,-0.5621926988635547,-0.12352616936227884,-1.7828441426619246,0.30578532803076025,-0.9156983654376398,0.48936267759331753,0.668071266457185,1.268151032562358,-0.777312779303155,-1.7925607178263159,1.2714902675955693
221,0.6576355125167339,-0.1547397443500854,-0.9214781738474296,1.796973531740568,-0.6042646677355643,-0.3446796935273161,-0.4746876068470098,-0.49579933699781537,-0.07838448100940261,0.621430798518319,0.663908087065213,0.8946171918145314,0.4713417647238132,-0.20761368984857312
222,0.3047813773798154,-1.2470439202862142,0.5182678326478315,1.2860304577525823,1.703411584635666,-0.5460543216910068,0.9239672494067809,1.625600386595775,-0.29699217771296593,0.09206082464008487,0.35398790194123,-0.8345299409937634,-0.3690571499976965,-1.4707008933713295
223,1.289006209364479,-1.15561224362682,-0.5190180439821971,-0.6285900845698328,1.3678098321460779,1.179961366459646,0.8958038340775006,0.5714512351067715,-0.1002821396890538,-1.757939935355122,-0.7553612606139211,0.4638742388526076,-0.5557992193402247,0.2337662700134477
224,-2.050754011673314,0.5966248288862315,0.10967219854549046,-0.47795458652235906,-0.7108902607689088,2.4506075316128846,-2.4219233139639553,-0.3012400207875899,1.6907820565191036,-0.40763505029027736,-0.816354356414194,0.04476790138050649,-0.434111483552309,-0.15830928544542647
225,0.9947090798291134,0.12987616409486857,0.10789493716755627,-0.7398102028095442,-0.8313772030094376,-0.6818953766990642,-0.5722263188023915,-0.024451630078856666,0.5836391538026041,1.149994954101574,-0.139202263255724,2.179541134849197,0.40525935289925374,0.3340609245654128
226,0.030610222767433193,1.283004634654464,1.7453769769515082,0.28199401948197267,-1.4467332414349,-0.6450934062460832,-0.2775139313622502,-0.21456995235176918,0.5215513951901322,0.11350300702653715,-1.0277713514144189,-1.043850120487972,0.7315157086787255,0.9029847268056462
227,0.7879259093505325,0.36225917411961,1.058170545207744,-0.42241419226526483,-1.498288988979314,-0.43757357757094,1.0596881323282494,-0.033128371968957813,-0.7143096285929528,-1.4419683585349385,1.0695848592938115,0.04574378177847646,0.4329292641053577,-0.37875533148237184
228,-0.523696847918304,1.4210272771469188,-0.24962492491934446,1.6715041847460734,0.48387840401539695,-0.9449215465525732,0.7527415386452696,-0.3761476589537575,0.3800782956897847,0.6012199164416415,1.6123347273058575,2.2586999559227463,0.01187142832174742,0.7324796770877635
229,-0.8911400894432732,-1.1040023635156837,0.4458856699816252,-0.012550957674037517,1.6650063882470902,1.4539960278350694,1.4405036783476588,-0.5133318620838808,0.6617823812689444,1.7300749669965916,-0.5594577884947942,-1.3416919588302871,-0.1371746912511344,-0.11307218279308302
230,0.4073903473586462,-0.5704816112585126,-0.9000609779875641,0.7143135484841481,-0.39620743799781605,1.039257708985948,-1.0547792777503422,-0.5842239709803072,1.0929314019892458,-1.2043831147514814,-0.8107326629321264,0.7764383251919857,0.4017648401212755,0.15196438410004715
231,-0.28071770904088383,-0.4541031591707311,0.052367583485111203,0.2392388970844229,0.5884578581928568,0.353316214383149,1.1798931459912347,2.1927492449363624,-0.5067957952808341,-1.1863276052081637,-0.26223438233853796,-0.014064991568758695,0.35596238900672367,0.4160890251411372
232,0.6055413503060485,-0.21886762953745514,-1.0279563526784563,-0.3817077244272667,-0.12135640919011786,1.0971198520125751,-0.4962456514113537,-0.5048068206341025,-0.5892964866692794,0.25470126174269325,0.8164244348792776,1.133457749656448,0.09004869664937247,-1.5830955619563152
233,-1.0780239670087957,0.2951741290667701,-1.3234276652358972,0.3704203791747579,-0.35702294796389494,-0.0916547086445599,-0.7855946492071451,0.02717013071565869,-0.5400356648489313,-0.9217264893219933,-1.096682163456142,0.5746184894702494,-1.6160085775011772,-0.21358211776523117
234,1.0698360214351987,0.35837854627267535,1.230425069023938,2.1721644052049034,1.2456408458109667,-1.7698455283485155,1.4646931807941754,0.4497377658716681,0.5545325243436575,-1.2032794744471575,-0.06018513096026882,-1.0654313229937151,1.3061970437849149,0.27949400902528443
235,0.6340323344775283,0.1082544086086447,-0.019083982341136008,-1.4200728168410062,-1.1232143626113882,-0.6048041635146999,-0.7641478669623326,0.6667006481232687,0.43347431072977977,-0.6330899301247783,0.8833018721034941,-0.8649248923909373,1.5317255809534513,1.4279277108640238
236,-0.414857899127052,-0.5937830951637194,-0.8351637280696592,-0.01394372790407739,-0.6084516979563384,-1.3769185192785667,-0.3700868446659831,0.4221946932748281,1.3432281482316915,0.16152040672395662,-0.35211550794856167,-1.0664218221654302,0.807426497774166,0.01286464331913688
237,-2.267380590728249,-0.8341352811401139,-0.6315217527256191,1.3097204337138892,-1.3409557906547087,0.7513771369637711,0.985515526517971,0.7617491628859427,2.7890730736009957,0.6608209760873789,-0.7557069081339626,-1.457195004453289,0.23453281361172884,1.7530362294939101
238,-0.23591929996325653,1.280628042904984,0.6012844322972459,-0.6689632227239566,1.8002368857068545,-0.7652895421405695,1.400586346990184,-0.6505671347240136,0.6527654453286166,-2.882573798668292,0.0977174785433382,-1.6406692092585473,0.21702908135733878,-0.43203068230272884
239,0.08840965448433981,-1.37187366099401,0.9024191986397206,-1.4552208999517027,-0.739495325231551,-0.0069045227570391915,-0.20328153952200248,-0.35600006388420125,-0.4343532215878703,-0.23259318310294794,-0.5880497795701034,-0.27680455011586524,-0.3870328132111068,-0.40344993999942613
240,0.6338306350423303,-1.0254523159046947,0.07316427120230001,-2.308835802485353,1.4006889934553224,0.39281143356317744,-0.5767030054381321,-0.4761827019111727,-0.0690716732672375,0.7591561193713909,0.15622516766239952,0.057995300204941515,-0.9892299545163507,-1.8561244743585448
241,1.5447042260021948,0.08925431273766139,-1.2201106634255396,1.5042764283288976,-0.6732952232749485,-0.24741610985155274,0.015071760625485169,1.8229094644386865,0.06367401735307687,1.0251536469329745,1.7018028797509448,-0.017457834791401523,1.4123292134119014,0.41254489618493384
242,-0.9325658118891482,0.8686171524812453,1.2203416576635162,1.6766656502937445,0.5273021525399945,-1.2113576299270394,3.227045494425734,-0.5885705793497048,-0.012666451882809593,2.113889007424975,-1.2059091053450421,-1.7865397502955114,-1.8550806520166692,0.0188451232960585
243,0.8396776586769614,1.6524065608109089,1.654128424448805,0.42480794275490935,1.8336237378402571,-0.7464372914720736,-0.27116080501596923,2.0935522787761505,0.0649563157389103,-0.6986595197865214,-0.6097141567633562,-0.48099542014381386,-0.28474477225398687,-2.290143647068367
244,-0.5218387371749447,0.09290418226983549,-1.3917532190543485,0.0023696038685279007,-1.3987296578828732,0.6468888146030508,0.11836007920151731,0.4814601496172666,1.2873747093943035,0.0236043319788093,-0.07205341513778628,-0.144836793108605,-0.29057957955848135,1.4226728938356412
245,1.2662198934243176,0.8461992044502977,0.39941257488535076,-0.5631338359496746,-1.695375918617121,-0.7107764090338959,-0.1967041203239963,0.5644483282868604,-2.0462964472909935,-0.4264972324238957,-1.1318999468107773,-0.5864779682538214,-0.6442282017567496,-1.1858261926652887
246,0.195781806383322,0.9041126333005503,1.4399002623307333,0.756535128930941,0.8757315182487476,-1.7548747364976947,1.6511692945634966,0.3418833764424072,1.2184520628404278,0.4586402885132657,-1.075279937670209,0.7150832933371201,0.22832011149104187,-1.229435020609199
247,-0.3910963417717773,-0.6537821497778568,-0.8800051545445466,1.145852924149268,-0.36900773247841157,-0.35145184386402883,-0.08334037207420801,0.13935105518458843,-0.7993787390923852,-0.38844010063028234,-0.15356590036347514,0.3238892330897546,-0.28941213004198646,-0.31688366896225
248,0.49803228702947067,-0.07805794194392876,-0.4785226096421357,0.1513281063594388,1.4054648682460151,-0.10328267294685697,0.9557509402277109,1.3149788432810652,-0.28007338682543165,0.35164508491708535,-1.0640968613163289,-0.371102304734585,0.6951073988901874,-0.23014214750120518
249,-0.12727380613253644,-0.5741863151224749,0.43243171572021166,-0.9967960609876488,0.8743872234289561,1.5147593341552839,0.7486202913087534,-2.0290438386145637,0.45446973644444294,-0.8211235995405668,0.7370021980713856,-0.439570077200652,-0.8362478491530108,-0.8942835446583339
250,-0.672743365881169,-1.0013340007610856,0.8602606799800709,2.000649090778871,0.32558797466576256,-0.6179575914560858,0.2619479425102889,2.521242561082373,-2.6522508370506324,-0.7320501785493814,-0.07444046094893321,-0.4568647580053006,2.0814431921949876,0.6511411155168794
251,0.33789560531284746,-0.9035257461788252,0.46257863870464117,0.3960179920344939,0.4338362445824383,1.4071707252938448,0.25330734796991095,1.7552877430724931,-1.743890949960723,0.6612400830680444,-1.5791406198259417,0.36829076000005995,0.8810577337197156,0.8450204676534333
252,-1.3779932794118448,0.8667676377894143,-1.2413476860747847,0.8273507500952901,-0.6298234855364491,0.08188442527713448,-0.256681410849312,-1.0643596454245094,0.09801280864504243,0.39222831667074454,0.9956106206748772,1.3086894457228273,-0.3416149827549789,0.05442947048462813
253,-0.18393474769395418,2.875193191658623,0.45584924908450497,-0.5822497739434657,0.4246396913187443,2.208062741549736,0.9892419095023464,-1.259986485039417,-0.06687493096925619,1.5726070935356637,-0.2891457785255917,1.7132105193652591,-0.48641913284964616,-0.8768808771823606
254,-1.855772999712257,-0.6172778075079537,1.426255731411898,0.7010993662928248,-1.094495520562047,0.7490930450210099,-0.4362412905750678,-1.1443743770268744,1.521665860412866,1.6647727696041206,-0.060337638897138314,1.0485621780029442,1.1452115142056865,1.6832698383854268
255,-0.6684811356785014,0.6891033148972641,-0.20532822760439207,0.4216971147513107,0.3115900565926515,-0.989071753020764,-0.6297020237036612,-0.7799932480675327,-0.8865560991336895,-0.09975640890552637,-0.5054396746331228,0.9059010954229456,1.193854091967631,0.6071415169767572
256,0.011100341222820508,-1.6892966718368139,0.6447094804424294,-0.19495217619795366,0.3645804641903749,0.1100145939720829,-0.13702365718097337,-0.912615219421237,0.36036001355963215,1.0098688011893389,-0.8315966399066962,-0.8256988854626628,1.9240255084355313,-1.4817983806929473
257,-0.5704424002426978,0.029410662759128004,-0.5052444848195314,-0.614378920239435,0.8584056623244521,-0.20648362733285025,-0.5274186568935119,-1.143925296595551,0.7564516312718954,-0.11529106750491104,-0.07640002851190683,0.9789503796238523,-0.49404327223218186,0.910994784844824
258,0.4957911627546254,1.7274258741086663,-0.7779009034902713,-1.0180260528791274,0.14951077868418353,0.23087201345628594,-1.3130708680758807,0.40200584086168595,0.7944572613228724,-0.1847375231037076,-0.9214273358825895,1.183529308643668,-0.5374558215548005,0.8044222935933029
259,0.9199389740772327,-0.030323687992124933,-0.3929278785324698,-0.985479934417172,-0.6892150903834876,-0.7706774574387215,-0.05476327596061697,-1.3786095333376902,-0.16097599654698772,0.5650383590931174,-0.9664811419858413,1.3245666830852956,-0.6788070215622279,0.5697987551202085
260,0.920398078449532,-1.2471255400887795,0.03486791420245791,0.6643985010340742,-0.21599839717247543,-0.28918762324254316,0.7286901111289541,0.27036177907081055,1.0682021612487467,-1.2621653688714705,0.9305051441982096,0.2831915762052307,3.1918835464915065,0.08138853325819265
261,1.01918506714742,1.1493789258094766,-1.7336012310540296,1.0117336006191757,0.4606039121936269,0.3151024119801929,1.8129307878670378,1.0753326574253588,-1.0612503992580002,-0.21159401827986052,-0.015655104555288075,0.8910759163024806,1.0848313943485084,-0.2342290049852284
262,0.4205738905533562,1.3599579755062767,-0.8610857803709233,-1.7052782312139905,-0.6230605154945296,-0.331568801227035,0.28024891743083047,-0.3951792364543418,0.3060161404713241,0.19139066991314968,0.4225531765771309,-1.838858956412415,-0.012499145200069818,0.36280520783340087
263,-0.26391655041853235,-0.35352528890818896,-0.48232884154031475,0.15315080283459417,1.1445021821115036,-0.714106291587151,0.6742794473974695,1.4504397617273845,1.797932421684939,-2.090947769378175,-0.07710721220144844,-0.2853740885447694,-0.23111604455149087,1.8333400009188776
264,0.33734341861879513,0.03438112141851983,0.9344747335021165,1.6783395685814388,-1.5143809044536198,0.06444654492212568,0.68300357542679,0.6779741658412991,-0.1807049411444039,0.8702028311472335,-0.42027372792490986,-0.822015134073076,0.5819690396866177,-0.37434754731098935
265,0.11169282777001283,0.2551564164575516,-2.062137929318511,-1.1903218019208919,0.6755341292484559,-0.3042103221142857,0.7540420927507638,0.5276915013617273,2.1752616303542687,1.951950755133401,-0.026685100219587705,-0.2531234000077572,3.3605119403109116,0.31984545009038884
266,1.126750078526061,-0.33365856261998456,-0.570533904411779,0.15540950856141247,0.4168520569726123,-0.4767329728778119,1.8855730938373219,-0.6229393152501203,-0.5787584810402898,-0.7326782894647499,1.1793479372536555,0.4737040975215834,-1.2225956444490251,0.4907428585896781
267,-0.010248455221240784,1.535685292268188,1.180488468374119,0.05403185913986102,-0.0236634358644875,-0.3734320446748273,0.8376675146797578,1.8168002415564701,0.7264949124920057,-2.314890326502811,-1.5706361781113773,-1.0481199397833143,-1.2480306989341237,1.4358767497434406
268,-1.25272691624545,1.7396035904156009,0.4378472023040382,-2.1347762378727793,-0.012003504410862533,0.48828079713276035,0.6965651702376269,1.3051145772487986,-2.7893073750015143,0.48102709224540924,-0.6849369710802135,-0.12885124368493212,-1.9394326024722683,-0.3062552054049503
269,-0.7162127191687727,-0.10850486465228155,0.03910605871509341,0.0958451815796219,1.265867678473095,-0.5365165109672044,-0.9385184828157347,0.16405208524213621,0.20029255886534786,-1.6748048596118306,-1.1836711056479534,-0.29209479264045596,1.26345900715795,-0.18999410687475854
270,-2.9425687488344634,0.3349705740515874,0.36225222435204163,0.5227353127223212,-0.41194882787549664,1.3321073397915486,-0.944053391645831,0.5207145765201466,0.5574792043626884,0.8371998332772864,-0.7271415532669714,0.20063690963622616,-1.876348292630269,-0.871030714252287
271,0.19703275356354627,-0.41518350783865454,-2.3865442000892765,0.0353625423354306,-0.46699440645299745,-1.0463086352428772,0.6798718389695946,-0.16607364347830264,-0.7878754804781336,-0.5198440264659384,-0.6661463356219798,0.2090233691832079,1.5836680784058046,0.6968860710320812
272,0.9591958903318558,-0.6772639943301462,-0.870958944601489,-0.5543554347849019,-1.0771221396041226,-1.0850361422001602,-1.054394751820682,-1.1593832074250876,0.19397784364888254,-0.8117014837359467,0.645347069054839,0.6282759610171565,-1.6889594580370653,-0.4342196921241696
273,0.2603940829284172,-0.8802219263207136,0.5541792656914641,-1.0434633484204825,0.9301699947101656,-0.5352676348381549,-1.22405417836827,-0.9801268036991859,1.0984142986454826,-0.4802392975429409,1.0517272007377299,0.1429263788496022,-0.1085419762658375,0.36133790651405057
274,0.12377332083927522,-0.029351241877795736,0.4205941028941923,-0.8547904225182116,-0.8494052013379992,0.782592043063548,1.9681841631577865,-0.370082276540303,1.4703756587685268,0.6673634473609461,-0.2296098426199596,0.05600442429602217,-0.2195830492021838,0.6974519523041719
275,0.29989201743602695,-0.09691609450038141,0.65687171091655,0.24235879384980402,1.74785885149778,0.912544805115871,0.3163163478799409,-1.465680416841346,-0.8374733371874471,0.21675007257761997,0.4122173555625925,0.1156762159853857,-1.4314482903266652,-1.893841153636978
276,1.837491353999083,2.2578283910162993,1.3293193567993862,-2.0615422970309547,-1.6499463706696462,0.7238544399488758,0.2571466531876279,-0.2974561112182883,-1.1917459525882972,-0.51014963377483,-1.1761156082366375,-1.698075478748913,-0.5221792892789902,1.555808671075394
277,2.1682176151766983,-0.583644880808223,-0.41195470225781344,-1.0474054370135668,0.028000794072457435,-0.23335410570508477,-0.16187979961113935,1.666269281056626,-0.4437668035718137,-0.40811163224254166,0.856437856479766,-0.5918391783070115,-1.4081164841259397,-0.40773291937377176
278,0.14207944787259935,0.8860114540010221,0.3696371737443973,0.863100508209877,-1.1265699456563294,0.784805921969539,-0.04062181593209185,0.3568276197008706,0.5932335136527436,-0.5995688405228846,0.8885375387785267,-0.11401470498662444,-0.11129392688837471,-0.4585951740411188
279,-1.857119094617344,1.6371924724201616,-2.579458492986233,1.1687553132736292,-1.6791347388298619,0.7663211823582955,-0.5651461373731428,0.760121198348247,-0.6807624413512292,-1.6793790808842615,1.6153966895780387,-0.6823521660092254,0.5272240219692546,1.1462617949311908
280,-0.02151604523596846,-0.46436593572417195,-0.5678312672087683,0.5810980363780697,-0.151033245597973,0.8908096241948983,-2.093279397338112,0.19945296781868213,0.9429006858381757,-0.09362143961124805,2.15630330956289,-0.809032326626431,0.9579205783679658,0.49714625522647676
281,0.4300398232137105,0.366485266204365,0.2629094541886208,-0.18703373870469842,-0.2752420263803445,1.1191953488402493,-0.9398654821495517,-0.8863937966479293,0.10173301440427633,-0.8714270487483159,-1.6643789494297652,-0.3485647691844981,1.0987221507566522,1.416242474618985
282,-1.191818361111652,0.7067853240118768,0.09055178259686854,0.10465079368836089,0.04444763506763591,1.4398210742247244,0.5433006821531137,-0.3278728442824575,0.03153108870773938,-0.10302252906665262,1.7378866413957403,-0.5102525184765042,0.09960464263211319,-1.4100394344201457
283,-1.1059042494013365,-0.9085554161374563,-1.4823168198993222,-0.36280717445117383,-0.4242841792490595,1.88266648043142,-0.9252534696608061,-0.277921284389014,0.7241535164859482,-0.6908153978593042,-0.43304816399176815,0.630400288675823,0.6503765347376045,-1.32554023227012
284,-3.1750994831583577,-0.2779229051650233,0.5126409953930591,-1.5670134401298847,0.7076577537862179,-0.8530807896355516,0.8996630335278761,-0.6081600463081216,0.9242358348426282,-0.5730413976216546,-0.6433494024202666,0.3325404180889473,0.17931053977454828,-0.18339022119115284
285,0.31990073660827856,0.41093215521928084,-1.6881888514780496,1.2288136942679135,-0.7448710098398892,2.494913923121208,-0.8437033836525628,-0.697190053400239,1.9696659631212883,-0.15606843519358587,1.9979194930407669,0.02480799445867508,-0.541762407874316,1.2598822665304246
286,-1.2468393204254997,-0.964676186609723,-0.8533859845151394,-0.5129320118974695,-1.879646791493548,0.7904085626313878,1.3012881090042536,1.5285682926418616,-0.26465450080895125,0.12080958775217156,-0.17101450615986674,1.2903518070163957,0.14892124423640674,-0.24420512866374997
287,0.7147915554562287,0.644989992213064,0.7209833615962016,-0.04847656641168103,-1.2088569984044566,-0.20603069647641786,-0.3664998518821269,-1.7255493666300161,0.8307909581852613,0.906784166411493,-0.8354373969761109,-1.7008002070276913,0.9327938816717722,-0.6908023085511872
288,-0.2960060372145743,0.7757240957893916,0.9977049409218898,0.7249643914552057,-0.37760607153617637,-1.197088028582375,0.6937850230003297,1.5995504068676463,2.0482315797483137,-2.2385892062050554,0.3864122526139465,-0.023183288170787714,-0.4168042923395344,-1.8240442946238187
289,-1.9810882235498213,-0.5417166525171552,1.1511165347313068,-0.0920068548289407,-0.3935907959614769,-1.2923236802552076,0.795999771829067,-0.4054238870735034,-0.47897982160639624,-1.4887919413474957,1.0579283126852126,0.6730692532492571,0.8091329436301995,-1.1947971394191
290,-1.1303789000877402,-1.2907375212215675,-0.8139263576134501,0.06991334201008455,1.6739609326028793,-0.551057008763271,0.2566854961547717,-0.23576705807703066,1.1662989167189148,-0.9262070514988033,-0.3257818776733791,0.2750045766631302,-0.43434631772997884,-0.2866268652437229
291,-0.1353037411859813,-0.7286975610030233,-0.092527261257616,-0.9916610275853971,0.004316703687344593,1.0698390797992983,-2.632355547402095,0.10798966901464913,0.3554140396192519,-0.6353043018915763,0.279135864190444,0.33049651280622044,-0.27728666672499774,-1.2677464440627881
292,0.049904190593687565,-0.35885255039998587,-0.8168410820832925,-0.18825570006441605,-1.8909041345274524,-1.1111435188836114,1.2400375439476496,-0.13406088434032318,-0.5240590630885601,0.8640819891644447,0.8003422202336714,-0.8492542093250864,0.22376871671716997,-0.73180961266148
293,1.6237213347671442,-1.1763816005838543,1.1247779898133345,0.09155845110144266,0.05518354054683953,0.4643184030638818,0.6585944110906196,-1.2782911856337635,1.2014803262095444,-1.687072801076519,1.0634724184450384,-0.5992234886838232,1.0994824900116875,1.5530212674205472
294,0.2570686606871006,-0.771834846044068,-1.1624552553946814,-0.33252943409791264,-1.9144142276319986,-0.293644425624069,-1.596072290717116,-0.024366632090832407,-0.8703961924371394,0.6100404430961914,-1.5395427026921853,-0.8888012479593561,-0.2865444221883169,0.39874935576731474
295,0.4388166832114222,0.3373036963229499,-1.6353285811644305,-0.6027879325909172,0.03986627983003592,0.28946248202821795,0.9319479227417314,-2.267486371758668,0.8119536719641834,-1.4690348830392557,-0.24800472421640005,-1.505102906409102,-0.8951647153348337,-0.0388761528226382
296,-3.691235292138113,-0.30079751223360357,-0.5149393447244267,0.4086806535376574,0.7037644644008635,0.6874136030312746,-1.6292799887489753,1.401782976903506,-1.312575249487173,-0.04556179069441641,-0.85211610152419,-0.8457237344540994,-0.8364965829964592,-1.7993184035563927
297,1.3268765231815591,0.8816690760646759,0.16703230894427779,-0.5165588515604365,0.6874177386886471,-0.3541371932020518,-2.211546435551008,0.1497123145461612,-0.35313587075050473,1.4902839274193262,-0.04218851296592098,-1.6557547899465412,0.8175203675587542,0.1728986693822604
298,0.9063799228763735,-1.6447126143982824,-1.0922318432262945,1.1455584302910569,-0.9180991042776998,-0.8360752917632754,-0.7982013886022384,-0.8760433399157141,-1.0573924063806879,2.348354751524047,-0.6097164874021153,-0.41222925970920093,-0.13452865156270266,0.6328949213288605
299,-1.623666996496755,0.4153605447181235,1.0701432674441975,-0.933326986618756,1.1639826736969834,1.6740281267806885,0.3028108400629554,-1.1306885148212205,1.341156881115718,-0.41540318539620624,0.3678788398853432,-1.8671279391928468,0.3517468467033509,0.5979326789393695
300,-0.22078870340554543,1.3079243885581338,0.45114149200513776,0.5110670404993127,-2.5350252080819304,0.21597264027015786,-1.8239220054212997,-0.02634898797461244,0.9048902795140464,0.11924286528870293,0.5515445829244016,0.5241380486846229,-0.9952892622651667,0.5782502976722835
301,0.7499348721093542,0.9712540251059087,0.9358414933045218,-1.064320405638361,-0.2750292430400545,1.2731483186846648,-0.19435942980967857,-0.7100411757313043,-0.08974223426687021,0.6101193756907988,-1.1359860194846212,0.22678237995908815,1.150449470988407,0.49257059011511134
302,-0.7837923283632314,-1.856155875003244,2.512586563783021,-1.430154251776225,-0.6591344003913561,-0.3078004102576139,1.265798541443892,0.006116965505584101,1.820990223272522,0.44501338797578166,1.4624820180384779,-0.2772377145024718,0.7683406469273322,-1.0246370156360933
303,-0.5229907251818076,-0.10791120073798117,1.7897837275983735,0.12006462092505889,-2.274534954272433,-0.33680677717598717,0.6748473158223776,-1.7521872271171532,0.5183822686715693,-0.06183840591463573,0.5820568057802527,1.2393745995615895,-1.503004996707862,0.793554724652286
304,0.33441828574539273,1.221972623378855,-0.15858449241368117,1.8617693013911583,-0.04777264373709061,-2.615399518177235,-0.711389505113492,1.752195686566483,-1.726764544254898,-0.006575049748653558,-0.2712325117192939,0.21550421042604226,0.9017635981247861,-1.3721489521255803
305,-1.511906009432511,-0.19212373465905994,-0.09701251735744054,-0.2993721490447882,0.3573892225889996,-2.635181055650123,-0.27400282625366873,-1.3404719578262825,-0.08729193488464157,-2.0660285898809336,-1.85597787334653,0.18405601352541776,-0.23260597785011725,0.9095979487157296
306,-1.5530129718634114,-0.6091517611725671,-0.3802701228097729,-1.6307479715920945,-1.0140442836468455,-0.1514164371681609,0.32354877493997536,-0.7710120539447637,1.1428468051622622,-0.6247196429768099,-0.4927349155570575,1.0959300339581535,-0.11149599355230472,-0.901546245515817
307,-0.6973572027574094,-0.20115927551451712,0.3885392378330607,0.41190002065509806,0.7608657179626768,-0.16614790033837384,0.16134272565620628,0.3906288117378975,0.725359021485414,-0.3948513046732432,-0.6987940094552327,-0.976212580450227,-0.7224182875013567,-1.0898007761755175
308,1.2664409040166444,1.0265349483777133,-0.49318892359452926,1.012640900648805,-1.3512523068440214,0.47322228652420883,1.1790161893982392,-0.19530120068339993,0.08275161692121982,0.8341128575348153,-0.31047748654215307,-2.8141894936054985,0.45501722742735645,-0.5318237625006617
309,-0.7881368572972849,0.5473160423922195,-1.3943477199349603,-0.9315520105365089,-1.013396603026436,0.7842267846859207,-0.3756093067401933,1.4169279669347332,0.40897685323101757,-0.7843140167770234,1.2532749972501818,-0.6346003346803349,0.49006152407632186,-1.1435547950275802
310,-0.6113834824037314,0.29206322174161975,-0.41423551689139493,1.0143622345040242,-0.07143551149707322,1.1814464899078592,-1.334983580028909,-0.2081077325844807,-1.5949660229320177,0.29895456900442785,1.646271089964,0.4955068216153225,-0.6221863792429004,-1.8273873602830326
311,-0.7615097693328648,-1.0310705117223464,1.4185867981955076,1.348829341618419,-0.2683039466302054,0.727461823977848,0.5151131227792729,-0.6354814179410035,0.4406379415876008,0.26112275764492493,-0.5299041545887663,-0.6735833010899142,-0.6943100027717223,-1.116522216712108
312,-0.4073391986739127,-0.28603371560247753,1.5155459743891764,-0.9057387237373207,0.6158133714158025,-0.6534323644466888,-0.7853048734758983,0.999534670954229,1.5950245346655743,0.4968915235504993,0.4600274682185867,-1.031111690591564,0.1274678839986661,-1.0084916661338226
313,0.0713780437548915,-1.6793877971562632,-1.1680247933517256,2.0289172073458364,-2.0096609907954295,1.4735303512143716,-0.6712550843741286,0.3273072874119953,-1.1419573250624222,0.6570081094619615,-1.0103342030940965,-1.0179036695826267,-0.08751693120634534,1.0714465538702374
314,-1.2420188405054526,0.6277640000116009,-0.38215703909285714,-1.183268288541085,-0.21511457935895745,0.31644325401051365,1.217814865640447,-0.6242501949147238,-1.0144639823209447,0.4979670677255931,1.5586103652541279,0.2703442946880737,-0.7569715275631176,-0.889468304156519
315,0.7527895244285657,-0.3613311555498779,0.8460786393673456,0.06649516337534359,0.9703068436518213,0.3952055885057053,-1.2993638707775994,0.8566202629883922,0.8377838077508332,1.1490682482984143,0.8376320453292972,-0.2798928125799489,0.4565214153738466,-0.21911834145673026
316,-0.00990087343154462,-1.8848405377369113,0.34436877407613475,0.5503853020045334,1.3620276262616964,0.44998550320326425,-1.7208680794194497,-1.0756795861230002,-0.5935418000932333,0.6521692784867019,-0.3922356603493974,-0.8696425251836848,0.9072293843112031,-1.0432532447485168
317,-0.46283427868836224,0.4940379059802133,-0.9227175190794482,0.547655584243501,-0.4707120473438587,1.0337580648612208,0.02040718692736921,0.17211974274390765,-0.29929105934798195,-2.114065745442842,1.0355011741360953,0.5307687733506677,-1.0607236792836336,-0.36705826410056214
318,-1.346474357062182,-0.3397926869126664,0.641802060156633,-0.7654958014745161,-0.07737996304294165,-1.5296008732843882,-1.2363901856151256,1.2668608399802896,0.894101197412718,2.360720779903525,0.7772779421395627,1.497851439555072,0.8304818749489978,0.3239832871668968
319,-1.4917888304454303,0.4364584322848754,0.2954133259854791,-1.4459550577976572,-0.3750815884255396,0.5365858073133937,0.5196399169968867,-0.9055322299539181,0.8129216545341943,0.3684327178729368,0.26489436223147267,0.2554157448287394,0.4441082481463915,1.7743645971551039
320,1.739330922700724,0.22159842754674428,0.5450098812087653,-0.9650707369212367,-0.9508678933994043,-1.0753266697324255,0.22852220516970403,-1.4470786353111538,2.140764120787917,0.6569782583978915,1.2186888902356396,0.4865885263593583,-0.34280139652038727,0.5495626680689683
321,2.0791604027223025,-0.06241313371830438,-0.2724521755480103,0.6747153634004306,-1.0966844881608244,-0.36102384471309973,-0.174153018488414,-1.6977664576175029,-0.7269045980853956,0.3045282746179417,0.19097003091032608,-1.3170987893162598,0.07691624343568629,-0.4296578916721634
322,1.9786659173051548,0.031134880488755172,-1.20361994225552,-0.7839253871797502,-0.762495979553904,-0.21225732506941614,0.3562073445653355,-0.4109707520808088,0.8558275500399541,0.4955865968796977,-0.2771994503252473,-1.2505155633800242,0.2278154203736717,0.3297337724831804
323,2.0215949442553045,2.4319022983870764,-0.08608201380349914,-0.0010679871926800586,-0.6502007914975126,-1.0404666345031914,-0.4379688817564388,-0.24335744985876837,1.541737372501919,0.312709522131114,0.7357004906064716,0.31900147258846967,0.21375988019278555,0.242768027888021
324,0.3539665769387461,1.1597988710758844,-0.5420419031312956,1.3524878368434388,-1.193754471514208,0.13515350028231501,2.990312325363479,-0.8958596342121301,0.6270120984274045,-1.4959406194915301,-0.1734625044712069,0.11591450009832778,0.8430339231896947,-0.15622057771652748
325,-0.5013987508155398,-0.041352132540746475,-0.17577931931982194,0.3000774409903189,1.065560773089873,-0.1450995488045088,0.14767569608197745,0.798358056469826,1.52950366788479,1.4346200737978418,0.54053406770466,1.567899103096625,-0.1569999668208898,-0.17410758300202964
326,-0.7675952185271437,1.1743476132525756,-0.26984350262008105,0.9501085645486788,-0.33443714254479195,1.833862017884432,-0.46729181888533544,-0.36897918464626384,-1.4639944567318455,-0.18046381434814962,-1.6667824172938253,-2.1090443715401355,-0.5507076240436544,0.8971064646159681
327,-0.40790874714642306,-0.03891896692355863,1.590264006924332,-1.4918909117959438,0.15426229613630926,1.3271972340408584,0.19036746241895572,-1.0483569086629718,0.5287642716995643,-0.5188741944563174,-1.3358254040685549,0.6771476209441302,1.107309916054797,-0.8890521531119774
328,1.4837616133160918,0.36451927879814777,-0.3851840851212017,2.0836149984709778,1.4513340081530435,-0.22965747285796392,-0.7850328104859333,-0.4351167247770832,1.0126028953902952,1.1988448805993934,1.2564090260525151,-1.0044557974337944,-0.055304436444706034,-0.9735770105253513
329,0.1668338010810767,1.0658316748175771,0.38126818984191924,0.5189942031259613,-0.3729622927373167,-1.52607603901105,-0.9316024275639514,0.23847674737000218,-1.1340512724410348,-0.44619090614170615,-1.4777578165603993,0.35586194707841695,0.9506723473319151,-0.6156030912243601
330,-0.19930723235893827,-0.9233309002532851,-0.712411221435737,1.2090871418876559,0.08371167592546096,0.1953126223767844,-0.24185908852791557,1.882522559665381,-0.881991297367173,-1.8540815171900689,-0.2533017731358826,-1.536174447793184,1.11627499339338,-1.083421890851712
331,0.10126392764435636,0.18618447922569425,1.7073915816151413,0.3715405529698406,0.4104555276577025,0.09463968621314811,0.7214671959376993,-0.7780432907784505,0.2085334482934089,0.31154471879473883,0.9321323575250411,-0.8154331575439308,-0.34242468599350556,0.49347361394331296
332,-2.5598116221219285,0.6596066925804447,1.260549545067717,-0.37098536067024696,-0.28211919233881916,-0.2229883433796453,1.8670405197699382,0.24617333918399584,-0.2797953682729173,0.1868636889682114,1.869333480171028,1.031671989312582,-0.09717654723300581,-1.668109278819683
333,2.155059818157042,-0.13081505250789158,0.563032014221586,-1.654721316650846,-0.27844571006461355,0.0602003421425458,-1.0842070622777362,1.088067168223736,-0.5223433473651055,0.5031395147257786,-0.4968409063644111,-0.14685057459185064,-1.408242534987493,-0.6741696478237861
334,0.8740120070459341,0.34314746267916685,-0.18644819031459442,0.6931403264712493,-0.11119469882003218,1.2331005395356365,0.07327359815106418,0.8673336053459753,-0.7455206487970635,0.22796618770724503,-1.155953114146552,-0.5234795522661085,-0.17294707692307673,0.3150760373145287
335,0.4319555456269399,0.3517770649458304,1.0078785568322524,-0.20539275977989943,-0.628164509204417,-0.009604776341367204,2.483991612324362,0.8583298987053518,-1.3942340640052826,-0.15397825592421102,-0.13478318119364613,0.10819647505635178,1.7164318912969474,1.250449299320379
336,1.209581920334762,-1.0979137726596646,1.6438615477292917,-1.4086151777476144,-1.2722576424048915,-2.5518404711244584,1.4182406918617096,-0.46108373244161766,-0.5501102828901238,-1.2262846350414092,-0.49386699183432936,-0.12416955426038041,-1.2881783570890448,-0.31269132549923156
337,-1.0875618516206917,0.242992460431065,-0.060560119441676635,-0.20682295900182812,0.5409702467944979,0.43733876265691024,-0.41221334339671617,1.7365645910588847,1.402846620342192,-0.2554272910550107,1.4391811199443643,1.1896647550912336,-2.1537022912485604,0.5516200973390515
338,0.3111970744138559,-0.9186827421174107,-0.7373784094137203,-1.0418518509851797,-0.4619287179270352,0.12695947250981698,-1.4920409143973468,-0.35482805589952887,1.3057528722920568,-0.3810653258825947,-0.3226605841952524,-0.2549246780158534,0.7849692508193924,-1.6805996123795073
339,-0.8360312969340674,0.981918173072913,0.7611938352256542,-0.3813667219208753,0.7045654288084019,-0.7986934194460882,0.9720796709632835,0.3782724797908742,0.5836384599193679,0.6821216965571967,-0.03896020830616445,0.3862942411105494,0.8411496536174531,0.22675386244126894
340,-1.1638931764316622,-0.2868293396467796,-0.2783672145290821,-0.44668637954082746,0.1536226666867367,0.9250121235970425,-1.6058057764140325,-0.9446093420601188,-2.139758981478364,-0.6986678689755704,-0.02002440792314758,0.08143214365118039,-0.761242706718037,0.9244010057820444
341,0.9617974989415585,0.8451470274920189,-1.6818510057772345,-0.8846579155297498,0.11378277850505754,0.2788057893815137,0.6658664723354291,0.7549554498098642,-0.36673534146201936,-0.47577077539310797,0.4275391833941048,-0.12879239637932074,0.9855339741804364,-0.6632767764539609
342,0.7106827348704916,0.4236000185623074,-2.322592269400398,0.5329941847880215,-0.15821726176173787,0.02011662676503839,2.0569938321342756,-0.4561253582193292,1.6432336820199172,-0.36170866774363514,0.19584544665075812,0.7508507438800721,-1.1217270773610697,1.443167293407174
343,-0.32428295985209116,-1.3444757128876668,-0.12264156182947743,-0.35304755069973526,0.07755339047728974,1.539447415543899,1.0885655756178336,0.16958742897790277,-0.7444757733562004,-1.68140158888378,-2.385335506886491,-0.5094909946832523,-0.19218857652826798,-1.200916307181899
344,-2.0686571703613117,0.2711929172024165,-0.06131138021599691,-1.1875594742350886,0.026892118655522077,0.2338865397789898,0.8893552852885059,2.3369407518056176,0.005463842842852369,1.0808208424267347,-0.36750768485258434,-0.8668776410033472,1.2857692931438311,0.025608044236225546
345,0.9609466322883105,1.274963857045142,-1.5088433462565283,-0.24699392577447538,-0.3126666610908239,0.2654379285231286,1.3783710959240096,-0.3532769982336861,0.9373952086536285,-0.35430505878277824,-1.4293399398039028,1.301433083137607,1.3138598448554863,0.3232219374857314
346,-1.7329020106874187,-0.0794802786596575,-1.0117592188247881,-0.3380771035269476,-0.37219893447963026,0.14323141312744414,0.26130370428663596,-0.42992253942142467,-1.6030406349340804,0.022590379197214974,-0.8636269423288194,-0.04112163797683242,0.09449789471722587,0.34549972661321293
347,-0.4455386627575288,-0.26157925880739563,0.07915471724209122,0.2649949433811448,0.6539546610223594,-0.6819960768148646,-0.053870738977490285,0.6097167159850695,-0.8298458438531251,0.47028911631602344,-0.08703470087029527,0.3918544528854778,0.4913163965328898,0.6999640738554513
348,-0.1920171451485442,-0.1363162413606672,0.7774658892699168,0.05699717705808439,-1.19178712659273,1.3314374543932466,0.10884226166441346,-0.29930710485399875,-0.8129552744879855,0.25215862177715,-1.1130395334073122,-0.2341401574097022,0.7544312264038985,-2.4398738746278177
349,-2.2370894781198745,-0.32414106354270544,0.7354227663287923,0.7370325564725557,-0.22715218297560316,0.29974086232835,1.183926873254239,-1.1798907178548321,-0.2605592877690133,-1.6096775474401206,0.33425546574326254,-0.056540973407573386,0.23122721498703971,0.3567682134022722
350,0.5090478177466878,0.5864705548259387,1.089098188736012,-0.9818188778996851,0.8052941295623439,-0.2208010683870084,-0.9612406908460119,-0.9643838180780884,0.30952665881694613,-0.8375628683319454,0.8345253013154916,-0.43440112134155967,-0.27280903049794986,1.368606334432295
351,-0.5853491213933052,1.4367165272721678,-0.20208594574747388,0.28455507005601843,1.376697975847644,-1.7021193640656371,1.198756995816858,0.5497872506840331,0.3325725057014803,-0.22415284666334293,-0.6216520120263781,0.7559873825856429,1.68420114183932,0.4540295549863944
352,0.17123961776329363,-0.14597984644232828,1.1005476606499345,-0.94077557228404,-1.1346773450642396,0.15510877341145218,0.6631094591894691,0.9618546609672411,1.0842629282654468,0.04955260371087136,-0.2474014647410803,-0.822801370803021,0.16255391826049104,0.602012883880101
353,-2.1869469695194304,-0.9482737062246466,0.1402555192028384,0.5579689022009016,-0.17620958161248698,-1.3443437137881995,0.0006640432432420414,-1.8085219713979368,0.48425125388207885,-0.9783323055152945,-0.1966680077395539,-0.03316595884003513,-0.6270757367807349,-0.3780751839928327
354,-0.19894641375595923,0.027185302957045472,-0.2704890960958864,-0.3984837224006725,-0.4173312501018914,-0.6376231959737962,-1.0171908427606922,2.8430414864996445,0.5683525326982534,1.150060201526577,0.10053230828834243,-0.362753850823362,0.611929641401137,0.5990110080118062
355,0.40239197999220394,-0.3622394135801149,0.21593543602002963,0.03720444436113574,-0.8933068536494643,0.3107891211638454,0.5123901874554461,1.4808885007956516,0.48531650807995846,-0.8947034024458222,-0.7192460495199204,-0.7195461507386299,-0.8779633242267045,1.6612191432554149
356,-0.9075903016559331,-0.1367670137450588,-0.28755669199651435,-0.5378457974132829,-0.9062300645370484,1.6795276015275944,-0.5384159496396714,-0.12444899252530213,-0.380043432930389,-0.8866300406856822,0.07553265320666146,-1.457780194498675,-1.7081536791398804,-0.460333856617528
357,0.7652456989704969,-0.45166072100822946,-1.7035995290773691,-1.5204141990292601,-0.06663490837157023,0.8873296490785406,1.3661467602090531,0.7197018863780155,-2.331788053075846,0.6708693688740279,0.694465892973553,-0.16768738380063916,0.4081820887935358,0.9820133633532769
358,-0.5547925342963903,-0.7304163588523332,1.1858633072485514,-0.944417603063383,1.2620628993305278,-1.1783144532151841,1.5940202542021196,1.7630160658504241,1.6084561293850774,-0.6478535785223527,-0.09557436583440443,1.1647466697613822,0.22898575035064742,-0.41829775734870256
359,-0.11955742957744976,0.5576863185380898,-0.1540348299080133,-0.20876201441423306,0.060254142243029454,-0.46115530885495293,0.40811532941121836,0.6660847782885477,1.4993391475444486,-1.1869695624221503,-0.7501642065393822,-0.6270388776490848,1.4983135120882185,-1.7502574827287947
360,0.17947172012466794,-1.421498918949532,-0.4961472691855581,2.871608567542075,0.8496610318595511,0.4982579812951044,-0.9073834158170786,0.6851070139002761,-1.3472511143418078,1.5825272363356295,-0.9837136864101432,-0.08781751064438512,-0.2325986740207494,0.7368951146875071
361,-0.6418442182662832,0.685107232168301,-0.7255857322675686,-0.5806606998432347,-0.5757090928876536,-1.281165600957981,0.2483329005019817,-0.9521950348308919,0.494825000299787,-0.9723002541055906,0.5748273102157745,-1.9696910916343169,0.6658740763359468,0.007712989574621985
362,0.5641963833360681,0.27219323835755765,-0.8431927650636388,-0.610625826143729,-0.35086824786123283,-1.7034396573105965,-1.0052719022971581,-1.3660639314618748,0.06893675329457027,0.22405191408743436,-1.079346625295436,-0.30933340819238997,-0.0775680476976235,-0.7448485968376846
363,-0.27844966470239135,0.5189250781131042,-0.8716287090555167,0.3880562395887965,0.0928504726814002,0.4643994321867954,0.17319373748352213,0.8798619011870027,-0.06297841137608615,-1.5208727903791364,0.29590864043171683,1.0106948893513759,0.2861801096741992,-0.44800450327002383
364,1.3836851899015754,-0.8283684832526239,-0.2939880293855599,1.5955274938571817,0.7718230577705972,-0.9193297299887284,-0.3736187450429065,0.519893237273305,0.3566280617540055,1.5364903315485023,1.0528624093278365,-0.31182718402265347,-0.3942540092902847,0.65280120297408
365,0.5335912116492578,0.538884161774615,2.08529822416848,0.4005660188676958,0.699550556956046,-1.1073033351340364,0.5392580282317618,-1.3762256826001593,-0.6344958181411698,0.23250026862835096,0.21157763205423308,2.333427732535744,0.5448471485021257,0.40818211869329835
366,0.740161805800097,0.14031191607846097,0.256352407448318,-0.9379344135047987,0.27222840513735413,0.6024097199111337,-1.2123858325728336,-0.7369540691650932,0.14397819917591723,0.49047573096711616,-0.36272404332241265,-1.110358232868632,-0.4782177331577328,0.8647319003525457
367,-0.7041206627666788,-1.9640588771993057,-0.4732813742174379,-2.271362699054864,-0.6204055242456048,-1.2441255966011673,0.6518058758630482,0.5474367449809321,1.307242706537643,-0.0647833433141346,1.3574082734916444,-1.4189763466485215,-0.8558827397571697,0.48006059017444636
368,0.2730860226361802,-1.6282557051977447,-0.15427018466027187,1.1078599956652762,-2.038486310180168,-0.8591899296565977,0.3897317808776936,-1.0261176096372007,-0.9606020902190189,-1.4111295458586395,-1.213003484917431,1.8504517500012803,0.7001103257458297,0.462716912545325
369,0.7464447044342193,-1.3556767255224795,-0.2204555215905761,-0.652358694558567,-1.272574375955364,-1.1267760124244637,-1.6916906507200027,0.8252899146511472,0.6638636239534843,2.061338822423103,-0.36279857255330766,-0.9302301982106222,-0.8258808591456095,-0.4309807007319556
370,-0.26339410329573276,-1.1196471445892662,0.4041503786822288,2.413646434698249,1.1351324160018736,-0.06410519596738554,0.8356256054831812,-0.7705705095271054,0.8810324948607888,-1.2360726769266506,-0.40227644403018853,0.33278680625192997,0.7880118881015001,-0.5856027905534311
371,0.6723931119146191,-1.7608880447079436,1.8098693354757467,1.1850464398525002,-0.2935780221169148,0.9094651060227175,-0.10769006918970953,0.25285593361852227,-0.7120965487917885,0.3433649658386298,0.09399199814558921,-0.12226619242673208,1.3230804237799545,1.312495182993191
372,0.14636755954892017,-1.3344168001265384,0.45034218695076234,0.4071234435662833,-0.34312224583667206,1.8319416317820467,-0.8524492663907839,-2.344761306619412,0.8227865383757209,-0.06089983138572899,0.30610790261215914,0.9047438285008185,-0.6525741500082188,0.7761228732031515
373,-0.4525490349125443,1.2152991920428518,0.32206193545231643,0.05457524441085148,0.26357187443881513,-0.8222816808669107,0.011965200104031038,1.2273141973185764,1.3471195632811614,1.7920739951145523,-0.6890178448873989,-2.0953364886393535,-1.1033215422428566,0.2577878594482146
374,-0.5257184281896262,-0.004220359550585699,-0.2798623968466772,1.7822085595088786,-2.0785296584555644,-0.1514119202075469,-0.5703305892944965,-1.6853025200188176,1.795505416528149,1.5752674161847882,1.6406009459777247,-1.0260874706480991,-0.5408938987831203,-0.4616659960664879
375,-0.29781682161664674,-0.5390506476735273,0.8262184015956335,0.5160414145865774,-0.1340650351206454,-0.1119216244418001,1.9138523881962137,0.3365903224546748,1.916340938846962,0.6313236210179933,-0.44222255919554176,1.1111764647344458,-0.1881071177712827,1.4490091867645147
376,-2.0314560506523094,0.8525465173190769,0.23398083225125338,-0.48207072003887175,0.2448015224091862,0.4370908292591306,0.9752109986563293,0.8374880938379056,1.2865868806334575,0.9848623728849915,1.3026463240114368,-0.020011111010502645,-0.8858646033161276,-0.36094052366964086
377,0.9267991843703944,0.5656680940513688,-0.42032906687406696,-1.351688241029394,-0.9882199690236311,0.7409745411882923,0.5885267110664836,2.4153109496841765,-0.4497222217121847,-0.7610878705987648,-0.07972288271133322,-1.7525486892711355,0.20588066970594548,-0.9347667323471753
378,-0.4126380874378249,-1.8186443062200517,-0.39881881636996147,0.30892960163392474,-1.3037632492947704,-1.1468604694969788,0.2924203950722561,0.5177580397076259,1.2547342659724718,-0.6259909377649194,1.3796445863814275,-0.7425932606118544,-0.11026966318982843,-1.6230515326140276
379,-0.8044570525498458,-2.012145382088516,-0.8427083706075119,-0.6642148859676592,0.6111865443388101,-1.3773521148888435,0.4565563743305512,-0.48006271412376633,0.3766052390172579,0.9924870403858987,-1.1690617873095248,-0.1428703035164185,-2.1480134320772173,-0.02830672463504401
380,0.006551417353593836,2.288347665633402,0.5804542030089205,0.8727983762781458,0.6426700795161249,-0.17884074555284635,0.3137508083307853,0.7789039185081787,-1.4426987242051494,0.5448343623598748,-0.22093160148819702,-0.27533650410574856,-0.575824643673602,-0.2920111900208943
381,0.08333254969973075,-0.0166064972985608,-0.6230751998338744,-1.275473953474602,1.291143545220614,1.6328515627813256,0.84692460460911,0.9781831704637294,-0.19284893208781026,0.2349262038398281,1.3526731350670391,-0.25736928846076756,0.043848196794574,-0.5225476504133234
382,0.39313267417493714,0.026747384640194924,-0.9701831298361865,0.650273755368911,0.47154868782576087,-1.6218861486465104,0.05380892216890105,0.6342043249213453,-0.08739821505924739,-0.374849043109188,0.7603545830433546,-0.06811871472327871,0.6727833670430926,-0.051841351370285685
383,0.7546855229751791,0.5287343257449757,-0.010454246577175745,0.9382613118147478,1.5635716683304404,1.0930566978185046,0.016048434665494903,1.5968515537164667,1.2425426118826557,-1.542745994297954,-1.2190185617308,-0.5360309507555236,-0.019967036877698525,0.37436449690240897
384,-0.9082829169366444,-0.671148192811294,1.041425640289963,-0.15931740746863418,-1.2251924133219734,0.26968549904732786,-0.061600995380975715,0.5253023193697934,0.20163131226623804,0.7436060883676812,-1.7134328672424413,-0.16328362609701527,-1.271815617568244,-0.06658754824665707
385,0.19986624425689356,-0.3279710116584798,-0.5019015720273646,-0.12021080777531869,-1.2143514701070424,-0.34513609591700145,0.034683454277883705,-0.25341225477350143,-0.26544169383087435,1.0211142710178562,-0.6614401988707896,1.0491286135034281,0.36170303315072605,1.3885004209109084
386,-0.878471599833328,-1.3065710380651188,1.0235455459358362,-1.0077241774274994,-0.6920513076338191,-0.6881690259577704,1.7492564620402207,0.8107035427104117,0.5725691146600077,-1.2683102268371023,-0.3822230681249382,1.36258951420247,-0.36124583958487977,0.17831324939198867
387,0.4786836687100784,-1.6722174454279242,-1.8213937874922161,0.6026259226454996,1.2485117221192776,-1.0653196311843411,-1.3015440164910914,0.9853150751792049,-0.1720170850225997,-0.7243442272091442,1.3506534755640522,0.9601087582697676,-0.36462362422577965,1.8562118576314397
388,-1.4971324545293703,-0.7072339187267664,-0.972280648263888,-0.8887168043256657,2.4317605894268235,-1.5518450116980091,-0.6042309366535636,-0.3524536872244723,0.8745779987542999,-1.7592873830200102,0.0417856507519742,0.34942022820891694,-0.49121998997790556,0.22208885114672486
389,-0.21057396695235692,-0.9107434916603296,1.930996192935702,-0.9400606936972581,1.4536898061369286,-0.23903689016067606,0.31589186745622655,-0.1535500619974229,-0.3498515410100948,-0.292077330891794,0.22044344573833569,1.4331571659766822,0.9821579776857007,-1.2854060191088157
390,0.41969262380001987,-0.05464541476719833,-0.5303425744951896,0.009185079303115124,-0.1391756498305334,-1.3327667269323213,1.7314789490402742,-0.9479175268074581,0.5515948075627598,-0.7777681529012441,0.5752197689647405,0.378199580820817,1.7583353412843374,-1.512733217322226
391,0.5250044084358363,-1.9368447196559853,-1.412406217271248,1.9186208664891284,0.9136816554983574,-0.16714870570449444,-0.08140693127463339,0.05105923976964528,0.42066826370869004,-2.0097798849964024,-0.5495840101118726,-1.1532516114219924,-0.5005252854232942,-0.14850728525991133
392,0.2660091409564477,0.8751315492349587,-1.140728039219782,-0.17797722306258543,-0.7010028499869737,0.05253152004597318,0.22497120754144323,-0.368065845460019,-0.9713822654507848,-0.45150555548328686,0.8635462334614065,-0.4728972910920323,0.3117886256218408,0.7263906525623721
393,1.1904497940897867,-0.7478785597321681,1.7689924886498611,-0.12046631447559214,-0.6876613615016198,-0.3955715404416989,-1.088175061663316,-0.3620993111577605,1.1774883873142532,-0.32643251967629716,-0.7268215475417183,-0.2172073205734871,1.2465715408838072,0.5141675592398485
394,1.1895576077119259,-1.3140493350271134,-0.606297231881089,0.5067129375218442,0.21552167094872057,-0.19215728435981735,0.3213092750816024,1.1935150421633958,-0.0701314738985391,1.5559679684838554,-1.8925474133164444,-0.9239253811159964,-1.4512403237915328,-0.8473045124289164
395,1.0591593544629962,-1.2936838212781052,-0.7792937539148346,-1.7648412268618718,1.903192035765091,-0.9972626834690862,-0.49961090355043125,-1.0151403224870905,-0.11596965206766303,-0.3900898292800937,-0.616228204283302,-0.4053505937502568,-0.6368308252300436,-1.2270238348393667
396,0.3454615203788136,-0.6687690648115002,-0.037127430136412856,-1.7070445483142875,0.2189123373016212,-0.8704454332210904,-0.8495008362523031,2.6041530246471565,0.3479941307005692,0.19556145895618962,-0.7774091472091383,0.21817939935539926,2.089062400342316,0.908358863373541
397,-0.6188670713700277,0.23439448667414728,0.471879979722754,0.8252861943166074,-0.9632170398616945,0.03655037329192224,-1.119691551453685,-1.4316499932574838,0.26508788016788165,-0.7110577141931506,-1.1883518604231162,0.1348343332276456,1.7737425230168213,-1.5005725279525877
398,0.4750976745766529,-1.472433848238264,-0.694590735192654,1.6470361316256061,-2.730514674081635,-0.8531486188704754,0.4649661770538724,1.1222552686690312,1.467462960060081,-0.7709848729504805,1.4976247519774373,1.0925309189775285,2.0285940779946827,-0.14156226920829165
399,0.4439937969497023,0.10431189076909002,1.7861508872440222,1.2812833314458352,-0.342458925901823,-0.16540015989427956,-1.116189966348334,0.04553131203843002,0.44952333310266224,-0.6226285241964028,0.20699304345920758,-1.2929578963121486,0.2688891962626639,0.5846744886633708
400,-0.7616886896001396,0.9958917979289665,0.29822272207205464,0.1778420285424572,-0.4524962530618244,-0.17563844061250497,-0.38178845986232957,0.9897849176221157,-0.7951915345552227,-1.2540354906038906,-0.4613408437538006,-0.6832634735222574,1.6862275703368363,0.544533514652347
401,-1.273250977570017,-0.5255432314907283,-0.30846691089529377,-0.9065843945382981,0.003028910210895023,-1.2253370548608242,-0.29007005212015347,-0.2368923722890833,-1.3814069857454065,0.17992959223408433,-0.8711189704388822,0.49631953369627846,0.18300064069145908,-0.8871335886515497
402,0.2027475907363342,0.8397365753224824,0.2679464373063567,-1.6537480757893064,-0.18438953953640785,0.3406872215334779,0.4676470766929115,-0.9192436446144627,-1.492464734458349,-0.26041010835001643,-0.8642492714662472,0.17490962760368672,0.7024019162353421,0.5074052993481792
403,-1.082592451972642,0.2094532127481806,0.32590351777484083,1.7640409573849423,0.7348517013950894,0.6834171673267396,1.1301628937222912,-0.6424885637405382,-0.09438213253046272,0.8930283354825238,0.13979923627583354,1.3019807195759383,-1.297639201329943,0.16811250313054674
404,1.9768118836561068,-1.5718542464453722,0.9156711495371378,1.4583878683415081,0.5576846368203999,-1.0998948214387032,-0.21819513204603588,-0.07965365909597437,0.8748983227798205,0.40519056527326275,0.4885376059688418,-0.903524789672783,-0.8105133241848906,1.2440383871276635
405,-0.5089359254667056,-1.2528680214019385,0.7516153947373012,-0.1340305340637542,-0.1548670096550987,2.3338457898952956,0.7629886373221789,-0.5028534653573214,-0.604575337850468,-0.24587365876488085,0.5307945577848411,-1.8793508396088943,-0.4738748860809223,1.5929148726677391
406,1.4332118014765556,-0.816575960391711,0.7213756683065355,-1.75665805162411,-0.46734290052875194,0.7600054194948873,-0.15418912641051974,-1.2195390767825844,1.7310920769140548,0.4979447272556434,-0.49844544695926746,0.6052738310698152,1.4788586666407566,-0.4374915733116582
407,-0.7139432236158747,-0.9968405854102773,-0.6154801218662423,-0.038084456977872716,-0.5346021028464157,-0.4167191478179838,0.8295913497751535,-0.5638524487267212,-0.5077411280737797,1.0371572596729837,0.15478365098345725,-1.0217468133883827,-0.7137500272811736,1.1633985101934097
408,0.156687191549174,0.8848710123902538,-0.16738815698767714,-0.6015114200196429,2.123751508793083,-0.5433119170313802,-1.178191920984856,0.6647767007295426,-0.7552063374644739,0.9658126017099025,0.8048131586282,-1.002501203269552,0.5901213597932811,2.1391236318632365
409,1.4209775454931048,1.0429365072378416,1.8014667233780308,-1.2129805886356495,1.2123531677812636,-0.8218975776445576,0.5965658649312944,-0.49040326433269726,0.5317167921532814,-0.5381208635252958,-0.8859749928859947,-0.030233686948347566,0.029822074887543817,-0.43745105061321166
410,-0.791989507640745,-1.283410135400477,-1.3684162853928807,-0.39711895489117544,1.3261238853678208,0.1863599020489866,1.143997081550186,-0.9383935469615182,-0.7140873322144021,-1.5762538704163256,-0.00968543057421919,-0.47262983332341474,-0.10659087255188641,-0.014171214199960215
411,1.7195915447291645,0.42257425879111593,-2.4578621642995646,-2.04192176984747,0.6315393384843486,0.18943879574440933,-0.698287662289781,0.5808481696737321,-0.5621908534890757,-0.4736276048664242,1.6938470869916316,1.5316989954254172,-1.5388463363510902,0.1404822435505123
412,-0.705994032579093,-1.2977922080795468,-0.2683430547536788,0.8027734899288412,-0.40783919489786535,0.873156406470475,0.5079652265953792,-0.87240705398259,0.25011664572893066,-2.2737896814552703,-1.603760191454046,0.2946035731594742,-0.8299569165063531,1.738375507575658
413,-0.6042454027832028,1.1923858910736556,1.4896503516590796,-0.34457135360658114,-0.7562411374347957,0.800187590065276,-1.5561897209391071,-0.7557045867323279,-0.8856045243115878,0.9686007986294497,-0.8264163958951042,-0.0180597511434033,-0.9391320238617749,-0.3042082044505574
414,0.018132042727936556,1.5714764164616137,-0.6947072864717975,0.4644582569257829,-0.9034982893279241,1.4140893301792483,-0.6258532135377484,-0.6629166765518303,-1.1659923603606377,-0.7774096434432979,0.20006979601199215,-0.6688770330174102,-0.550456627479764,-2.009740945585566
415,-0.3577710895444088,-0.35352090363621635,-0.3824602812945717,-1.6885708628468437,0.003444138751470241,-0.7103206013947068,0.9422449673563291,0.44156826981680736,-0.8047960091759195,-0.8829518498117255,1.379731673744009,1.052963741026717,-0.1520529092746195,0.684273384730943
416,-0.09157048339469724,2.0588994875066042,-0.3763541260333715,1.5911663649763523,-0.2773764842903965,0.12186518996645264,2.090256333389682,0.07702791800771028,1.3896453077427748,-0.43463603743545376,-0.9396958882991931,0.07462581609901996,0.6336356318907235,1.179932822261227
417,-0.8539896983433058,0.5059022415354888,-1.5330412972646497,-0.6485621858537023,-1.053959010000741,-0.3894287658235782,-2.268729950291789,-0.5918273968599712,0.3325166093623778,-0.7753308499329752,0.4384824281595343,-0.14177195143123997,-1.3930527130632595,0.4595487931207985
418,0.08503764610224131,0.8046287293203009,0.5849869874986414,-0.694764348613112,0.023556252930958407,-1.2997232700949068,-0.6533688596555953,1.9869152061743058,1.3668511578880047,0.5422866762690314,0.24239492693503464,-0.6716105475754787,-1.2296018588459765,-0.48830798133339953
419,-0.3714490067167024,-0.18795132986044397,-0.47964642756294834,0.5861921997727984,0.9834878012900667,0.6478466652194019,-0.16315345511853016,1.5346553623049164,0.5354381039321259,1.2748567475973747,0.5579240121466916,0.3135791728775655,-0.8918720067623513,1.180103685536403
420,0.6629455705507941,-0.4992401161129803,1.0517335015898321,0.00567266504444178,-0.7630338902376742,3.048048295939434,0.021670888341372825,-0.32522381741862416,-0.5739205372657782,-1.7601457638829634,1.7149713962076472,-0.5912863905192022,-1.049865368601969,-1.8240607629293735
421,0.16251615239842218,1.4395454026879337,-0.3290465890872006,-0.13809500768119579,0.08579460387983655,0.4776018651354236,-0.6693967065719526,0.7634304619790556,0.22540489457873195,-2.155331966419163,0.27048555793799434,0.6452947832568989,2.35593635963891,-0.9024992199039629
422,0.4475917094376416,0.19307254804395796,-1.0168117663474465,0.1641216875719956,0.627299424407526,0.044423444403739965,-0.550222431785957,1.2307554058279306,-0.21742798056007706,-0.0009538522105358569,1.02467132864426,0.8986837025172423,-0.8726510999954129,0.10894818375324382
423,0.49085123422745813,-0.20000193602313449,0.1608877234245313,-1.3855916518995215,-0.24460492294214156,0.8868518854042424,-0.1590704165841686,-1.2124653599486634,0.4696218428448253,-1.6819127558314648,0.9803766891571778,-0.04499060019823438,-1.0480793234718775,-0.9595433988241314
424,0.1338157218071005,0.07431518570562959,0.3595019776712043,1.7707387889101038,-0.500318225149893,-1.2152238815263758,0.41542924782763535,-0.8842169979473196,-1.767224477043574,1.2989211549068944,-0.4619382199878775,-0.3998735498418517,-0.7683283002359589,-1.1067034091800434
425,1.3558499419156855,-0.07383787464169088,-2.879498690595294,0.6980454377055123,1.2691974103162433,-1.335274957712783,1.0481557189709831,0.3937037909425783,0.5025405536332076,0.3401743327533549,-1.916136980667072,0.8906916474150619,-1.5014206793988805,1.0636304084560178
426,0.4890052091836855,0.6470481497479355,-0.5359603115401984,0.684172724133371,-0.8466463430534716,-0.8502808124516567,2.3326672541876974,1.7485768744771297,-1.4165718956330455,0.8838930254931673,2.0703732463868607,-0.3082184683650336,0.052305361049327294,0.00825682537832864
427,-0.26153983605981385,1.221559368862666,-2.105700783778197,0.4467053065436417,0.5800378853045979,-0.34869740333930704,-0.7635929930946698,-0.9652610726094215,0.38132728989910497,0.6140262354707559,2.3392111131825253,-0.6950501200234758,-0.6700302900931709,2.68431390894024
428,-0.8898747459912584,0.369257984072324,1.5858836225657431,-1.9844784811187517,-0.08793551590558978,-0.17503509194516606,1.1399719824457766,-0.2857866248114182,-0.6909258170072748,0.26617365364602485,0.0950701299803183,-1.2104689977416248,-1.7780782598318325,1.3456032587224618
