,wrist_r__acc_x,wrist_r__acc_y,wrist_r__acc_z,wrist_r__gyro_x,wrist_r__gyro_y,wrist_r__gyro_z,wrist_r__press,wrist_l__acc_x,wrist_l__acc_y,wrist_l__acc_z,wrist_l__gyro_x,wrist_l__gyro_y,wrist_l__gyro_z,wrist_l__press,ankle_r__acc_x,ankle_r__acc_y,ankle_r__acc_z,ankle_r__gyro_x,ankle_r__gyro_y,ankle_r__gyro_z,ankle_r__press,ankle_l__acc_x,ankle_l__acc_y,ankle_l__acc_z,ankle_l__gyro_x,ankle_l__gyro_y,ankle_l__gyro_z,ankle_l__press,chest__acc_x,chest__acc_y,chest__acc_z,chest__gyro_x,chest__gyro_y,chest__gyro_z,chest__press
0,-1.2328356047373414,0.3588238289829756,-0.40249055291635805,-0.4877749910448726,0.44386539815507065,0.21227971589612962,-0.48773601701077324,-2.017474974822823,1.3813175585232296,0.6179922682580566,-0.41142896077863844,-0.5036239154313138,0.425775570885624,-2.0999782980987356,0.7816423025306373,0.6520277308654235,-0.083431244358024,-0.6953917516245547,0.28625988464455215,-0.008789636172810329,0.6548866638462221,0.15952652668295556,-0.1369857901844018,-0.08571147850943377,0.3835224739834132,-0.09653122190478679,-2.572501555423884,-0.5010158129626192,-0.8255722966058961,-0.22405039204289773,0.22376558738098656,0.04257458570085052,0.39336936184408533,-0.3807558822943591,0.4487327256589155
1,0.44533237689747235,1.359289502774265,1.9681333710728064,0.4952694910762691,-0.033815973329617915,0.8723021473622592,-3.1693126574429034,-1.234218489311186,-1.6444488093339154,0.04425711949001069,0.9643130461453113,0.8446628888660823,1.446372100994272,-0.04789928866046751,0.03306439401913902,-0.4408424580269633,-0.6069995387470061,-0.7791040640393689,-0.3795822909437425,1.0667137356557355,1.1852511911754733,0.26689318670381945,1.9832682966235478,0.6163496863032238,-0.2834019737160179,0.7805024840369015,-0.5022005813982815,-0.13518674148557686,-0.14358323065296977,0.5383511877769521,1.6644966710200937,2.232902107232046,-0.3319786853432534,0.20701269034222516,0.46484434791701396
2,-0.5966799669041669,-0.057469211818770835,-1.284516590422411,-0.21464355022846077,-0.7901014665589017,0.6253857687168586,-0.06617368734301259,-0.43399580676364063,0.40152721301372846,0.028676005693953403,-0.9534850910590555,1.106726339867957,0.17047625492501292,0.01979167769907733,0.5902330376145339,-0.2978399377432744,0.9345780376061376,0.46026522137979314,-0.3469043808585292,-0.22676334036478699,0.6906753871510328,1.0180599951654001,1.5023489802496401,-1.1697805685088298,-1.3887754096126221,0.6674226362471224,-0.7284033898563365,0.9920054375215679,-0.17712568179647897,0.530001888653467,1.3735464748310133,0.649568061383871,0.1475298412780757,-0.22958801263092518,-0.9196327302151698
3,0.7880377105743208,-0.7570369443005329,0.13838866676185435,-2.6155111091991006,-0.9351983227427207,-0.2681983554221125,1.3458151144912733,-1.0253223008351293,0.43735897334739166,-0.22637066849717685,0.6491328445884673,0.44840053044179806,2.2339655160964607,1.8807586416449216,0.9108924769465626,-0.48886846222819447,-1.925937857688425,-0.26222441928606915,0.03993788617498101,-1.575512217790335,0.4734762101702128,-1.1949026139058627,-0.4086115376505482,-0.9352390137818134,-0.038892272541463886,0.17051237404765468,-0.6435522910363453,-0.22520079361137194,-1.7671180756796352,0.2889225813832717,-0.34110998537528403,1.0626443027677572,0.8397802797606442,0.13187890672220984,-0.1991964260976019
4,-0.0683536708784165,-0.5406376995460636,-1.057364261078766,1.110238514152113,0.7897606042630986,0.9218217310471379,0.14245086170832552,-0.40582856434143605,-0.9375927962033428,-0.07445619947864297,0.2775743270149771,-0.8645773011083263,-0.11557345628349246,1.0738994143330243,0.8910874317998004,-0.4077132650700189,2.323789356631431,-2.014805740975723,-1.5561227809617388,-0.6968618879552929,0.8258244863624471,-1.1048316299142453,0.7166064467755423,-0.3115103585574043,0.04884473327068091,-1.1169418266853837,-1.286077281824194,-0.7044778906772566,1.3101751217645377,-0.1310648991547926,-0.2555278886042012,1.808315626817952,0.28250310804760653,-1.1740159203991072,-0.11393168901588976
5,1.1254794202999479,-0.010179238174493045,-1.8855818101087045,0.17035044878780872,0.6768505763213943,1.7262201757108182,0.31426084737042764,1.2119062864088772,-0.20145555066749865,-0.14963430352283474,-1.4245708449080703,0.850525101028082,-0.5537560789196962,0.63483534445695,-0.22691803742192015,0.6997931395002993,-0.799769896819881,-0.04658949015536005,-0.06604334794904233,-0.09195665644290626,1.1836067980146003,-1.5320047172954947,-1.0670901182032217,0.11714731886426939,0.5058655347396104,0.32367463979275857,-0.20320373034241887,0.4222860125648017,-1.1685982348074264,-0.3363465499426526,-0.6406915715235919,-1.4273929505877845,-0.6144250931622603,1.783320666560556,-0.4633967080779322
6,-0.008407694223994639,-1.6031875373588762,-0.006672928930793651,-1.5962814094690077,-1.3386399941123774,0.8634519626327801,-0.92391975637094,-1.2366309047753303,1.1689606933013679,0.4270397923207297,-0.21785025923660703,-0.16608625128754048,-0.2589184142905152,1.1377601390698262,1.5442756285579646,-1.4899690284746034,2.2258414188914846,-0.32664524463039546,-0.30030642793076157,-0.6382195509926591,-1.134678214709074,1.2365582864870395,0.9632024600653647,0.926867931948237,0.4492067333676118,-1.3741292498806739,-2.6263678743213688,0.33020938406727873,-0.6336765843480668,-1.0681527027899584,0.6580600733782475,0.5522466353297593,-0.6103968182004234,-0.8550275250800382,-0.8209761358965784
7,-0.35384672776442716,-1.0908616794594705,-0.7063860658363055,1.562121393826538,-0.07838240413168385,0.5369263683396326,0.9278285836853974,0.7156468957206659,0.18328916181752314,0.008001017823820239,-0.030573994859521236,0.9191529909628056,-1.100556314113656,-2.088246204534484,1.3815524160143144,-0.8547096474001533,-0.9266242268105103,-0.9876074346553588,0.10888456358963206,-1.1969134713401623,0.30576169042223394,-0.06405191127861963,0.21688022194408443,0.9574418511091514,-0.11363734295537445,0.6313456188864935,-0.09458128775763562,0.6139640972039393,-0.8326457723266334,1.4202067765749733,-0.7691933870529405,-1.4318478216609578,1.579849321391186,-0.0076824265995176656,0.37059466016165915
8,-0.1858806807901542,-1.4492199154037735,-0.2568931824233341,-0.035487917258429154,-0.5811312779220689,0.09004790172201342,-1.4286925750251005,-0.5163565294366734,0.5117433471353647,-0.9475575384032797,0.9112956264823759,2.793238030029927,-0.46114947796938255,0.07793072972803816,0.7886032652061472,0.22617067520850878,0.09185552446414864,0.14758969309980033,-1.1663997885257043,1.2932240080837796,0.21080290147161454,1.1149017499448508,0.3501100818389547,0.01963107144903037,0.085649964280066,1.122006903736345,-2.875952998818603,-0.39798748270116907,-1.0514823106304432,-0.5118289436599783,1.07022174765927,0.4192500161337959,-2.6534873606738802,0.1927474632166572,0.7666508639422772
9,0.08665111973975673,-0.156509626202792,-0.6923258281932921,-1.7341714227440372,0.9918982443390889,0.058611816058329144,-0.3962018680259074,-0.6280137640831015,2.5821743727769246,-0.15742344480253279,-0.2545163290747348,-0.5602298514470705,0.5951810262007389,-1.0281235987841622,-0.16645632899848972,-1.4002204485003087,1.0857484823469574,0.23213933680756954,0.6186325579260982,0.5415222720985124,0.830821155530458,1.3729995212189343,-0.28735954361926597,-0.4872304934490298,-0.3242766101473437,0.7352483590068247,-0.7701407233830675,-0.3196640639398748,0.6983875510855252,-0.4433925368903232,0.10004854915969139,0.20919676653496705,-1.220437546373301,-0.6610314875961585,0.06349784771899265
10,0.5967078784762682,-0.5305231353971643,-1.9693051713194238,1.099394558409219,-0.6194055030040496,0.6256602087259393,1.3080692696227627,-1.9442575393228752,0.06967641052698009,0.4366220592210592,0.12516317509246883,-0.5612208432434231,2.0546645284895444,-1.460880573807338,-0.5792149833543043,0.5312318905727489,0.7589914619667537,0.3589810146444158,0.6721673551533527,-0.4950565383919505,-1.2403574124619157,0.5365199831940555,0.2254508992416486,-1.4434841182355067,1.7346893010054878,-0.09209025707921518,0.7348662146553152,0.09162031894404829,1.9810524183568368,-1.0998481372328799,-1.4328782744456021,-1.8768988077931639,1.022837780542685,0.9396504885352321,-3.76939855754424
11,-0.19217362109130864,1.0221208317983626,-1.6074192534764373,1.9353524857088777,-0.8347292413385814,-0.19073290591578598,-1.1062010984024158,-0.6633634931084197,1.1303952994622695,-1.197045923873411,-0.27779505097105484,0.5449307740500673,1.8887629186049264,0.7135609087833573,-0.8596883391307791,0.10952289983967503,-1.863712378365287,-0.20403606829283358,-2.3486436101411616,0.6373793152262833,-0.02080855722057419,0.6878531290477787,-0.6589436502266818,-1.1229239175636967,-0.8208685968811058,0.5754154335166891,-1.847330260263137,1.9625164961290453,-0.7282584962487131,1.3434760611157923,-0.64575933068737,0.4493189042213923,0.10673420027213708,-0.10344421088519175,1.2212245779905417
12,2.0347707202594054,0.2515623027525159,1.1778636169743986,0.5456807690642701,1.476204444732457,-0.2501069252268889,-0.5877209370017149,-0.44049226631747523,0.15908114404251678,1.616241878744545,0.14463278115300876,0.4391894665289101,1.1213919130931134,0.6722139890875699,-1.0627266213541202,1.139068138971938,-1.448807311435708,-0.13698538404750796,-0.4067007433069061,-1.0174535760422834,0.3384802855182881,-0.07353502135004668,-1.4944063297793433,1.3184478214525082,-0.9167511224900181,-0.151966520344768,0.3710546407399003,-0.5480944356549868,0.09758385698176249,-0.9002192685758651,0.005167109102498087,1.9347317257501908,1.3468785148695988,-1.7455177687739412,1.6878601614350117
13,-0.36555389278210443,0.8756951699271236,0.8859197471495261,-1.0586147431946256,0.7682640068411158,-0.538659139985367,0.6632226839782044,-0.21454124504068894,0.2572255374915677,-0.820719763394257,-0.4372361295811707,0.011340023846335135,1.4190758483386847,-0.2259669183270488,-0.026814043942303488,0.6786829188881581,-0.5830413225923123,0.00784783203537294,1.6597233087360757,0.7987513839624539,-1.0991043928018007,1.294634306200791,1.002360912244836,0.35358308288293766,-0.33416158878389346,0.3230043428588425,0.9989846941291591,-1.1681817518036677,0.48650942033888,-2.142058526722221,-0.1641825327400899,-1.9140641684681787,-0.4153924332633035,0.5816344948275077,-1.7819008106604861
14,0.9089154514585712,-1.5394890936672916,0.7420519649725743,2.1074998290215485,-0.9054715824718188,-0.20455270574567316,-0.4945906024705852,-0.5060902048899975,-0.08016552281547079,-0.9224795418191137,1.844425467079303,-0.10034738866337925,0.6402727895834414,1.1474767927948228,-1.0962873627962462,0.8940760133356016,1.731362185133583,-1.1467839384960647,0.8761926042979397,1.9636931014505445,-0.5677955849283546,0.18695566500024358,0.26905704510160083,0.15904159089965939,-0.34816191913496014,-0.2180146485372303,1.2833515201604395,-2.8628794960557085,-0.08079246334868558,0.8121663433420059,-0.9944814779930199,2.178219277896986,-1.474486213226132,1.2846957295502117,0.7088372936521533
15,0.5013674013376432,0.2223436359152762,-0.7279151323337142,2.1245082231254733,-0.5432012131892047,-0.012544057269313192,0.5046026260157478,1.0605908971891553,-0.35657238504872013,1.997413958854287,0.5648031146162182,0.02867161022777321,0.5010127642137968,0.587641599059817,-1.6879157439660362,-1.3449557823754523,0.6144219291769009,0.45139964556223244,-1.0935116373555522,-1.2494979397047374,0.25502545239548274,0.0779333049925845,0.27268949537572074,2.074528966721945,-1.2966723221414203,0.007948708660164918,-0.00502372030588652,0.8361401663439436,0.15020632690603422,0.8151865289535324,1.902634661040533,-1.7000995455728447,-0.8149687420757721,2.15311793530135,-0.49846644176642335
16,1.590110894226376,-0.10472712591787633,-1.297890287751733,-0.5986401916194573,-0.9761916465710172,0.9383191792397376,0.15332733360772294,0.11160965393275595,-1.930075042980416,-2.480500622024491,-0.8146001275486668,0.6283585508437189,1.3181810998613241,1.2580043556591605,-0.2889650330772695,0.19120166821204926,-0.13798060998970557,-0.29444846273910363,1.5909799742191373,0.6552890662312097,0.7974297687212782,0.08735552011675662,0.8702820105336988,1.1102386764075272,0.35799648331565154,1.576259887285384,0.8986803883641501,0.16315001259695527,1.3016455832635834,1.278219731448519,-2.441466190285926,0.3899731519789748,-1.254587944684549,-0.6396791532864523,1.268456938519223
17,-0.5279799678411979,-2.3824855394808337,2.803925356756911,-1.0056112078562494,-2.5198632302881667,1.8363976425846815,-1.0019034096820554,0.9680774270865182,-0.6669259258982232,0.15046189958727882,-1.3504482462100933,-0.31748999566100383,-1.6348389483561818,1.3319213135379218,1.5569349327417057,-1.4172594002777295,0.694608581686453,-0.8125655861963215,-0.220846811501969,1.6083226813542844,-1.3468646402902422,0.3757636774089444,1.0073072465952813,-1.7428182668610588,-0.21493641968277555,0.8050385214413835,0.08934950161392442,-1.471357021251761,-1.2138975208965321,1.4688961478299274,-0.9146975311225797,-0.6380686150565863,1.1407905435269117,-0.6848351130664787,-0.6245680605688394
18,0.4056449342607838,-0.4176293589808098,0.9772131384316189,0.3567116188981603,-0.007838751947342145,-2.0199380473528494,-0.9907588585124542,-1.2099302247406838,0.9907648556276922,1.9636069032644898,-0.3150106762526038,1.2038676076539268,1.206728944055495,0.8142376168296126,0.8828682399339169,-3.103608662093923,0.13265016958559392,0.5938767128033761,-0.19945734393733996,0.7188227121070074,0.9486669698554862,0.7328071798227328,-1.8465153506022816,-0.22249406444721756,1.4716802165434586,-0.13000629545099213,-0.14036236848126588,0.127812499949883,0.38265640338436124,-2.5974490330168725,-0.4726703812922476,2.064054155864053,-0.007049813087864035,-0.18403458203691672,-0.011839257874371196
19,1.0828966020642177,-0.1490342574828867,-0.9453021713412075,0.13357416320938068,0.2016914332018053,0.099023879820977,-0.49807279674803157,1.0461364372243065,1.9168560567441884,1.3737116247850367,1.2991416349058977,0.35287544444390967,-0.6841826068699839,0.4448316306301622,1.4843879446010002,1.2156634923752292,0.5265401780113033,-1.7545815174752786,0.7992076601647723,-1.4733843417013117,-0.9836574339401304,-1.154548123750575,0.026796325392264914,-1.5949095948585035,0.23958430061460473,0.5357905431074652,0.1198544250249618,0.43058720487995855,-0.9007168410234093,-0.7620418650115283,-1.3116394940924656,-0.1400759350266464,0.5574914541972465,0.9723667675753018,2.4384163636359526
20,-1.0242047534864072,-1.2337724465820967,-0.9946473076557741,-0.27576390937551754,1.1175191885139837,-1.1295011680927638,-1.2438461640971292,1.4611630109687,-0.42166256605630914,-0.5149255639217152,-0.44841606306405485,-1.6592162224031048,-0.2818127088837886,0.958478275048946,-2.63312515268247,-0.30300901489716725,0.8611923534964913,0.5644085541267757,-1.7615831401001683,-1.5596359524309733,0.868003143397785,0.4329497333775513,0.2454853368420706,-2.6767645803121707,-1.9226444319904619,0.27692401621661816,-1.4543635177297216,1.126826392281979,0.0616870143652445,1.0461542822706962,-0.7227727925206786,-0.037675966406499284,-0.2805384205315002,0.338427540036509,1.7784741630505412
21,-1.0837331893740487,-0.11798725193473815,-0.14371244235058336,1.5216953948003393,-1.3092233324259799,-1.0920238001875735,1.954411527211824,0.0029027300626169386,-1.1408012601960416,0.36339603151259037,0.9122754607214199,-0.714128897923943,1.2114945668766568,-0.4344970273771556,0.03245146039100762,-1.070266967279679,0.5676397103343263,1.0160382286981458,0.6126515455194997,0.030163750891957213,-0.4007036307069134,-0.11956036916590354,0.8782342214327734,1.0832739082382021,0.5698526231832711,0.23885816600323773,0.7858380769329946,1.367052565390427,0.8022152090647916,-0.540309269530545,0.04313575342046942,0.15039635954386973,-1.40406753743405,-0.43351539874728,1.3760089836299036
22,-1.4623170881245426,-0.40689334664230487,0.2631870748429971,-1.7177340642474217,0.5389920768543369,-0.6815146275758933,-0.05835713657490825,-2.3794713613217717,-0.24407079210630772,1.793655499365881,0.4694294878823518,1.0255744680965582,-0.624023159545161,0.5943809885597265,0.06673006898420901,-0.7292036572530098,0.5946698426465247,0.02913295949233043,-0.7821006858135331,0.24681516738646417,0.32156833549091757,-0.4708211824732987,1.3080922811176645,-0.8958088050545809,0.2301276056956064,1.036089328918132,-0.07818638993437334,0.7149303290891874,-0.2208911598148514,-0.775370747530879,0.5407720016980633,-1.3601644609323822,0.06572934653976155,-0.0061098160429601985,1.3905419047054675
23,0.4081074928193096,-1.336525265131877,0.019891851548738994,-1.1718204858177337,1.6465911528219845,1.9454835472178997,0.331158666390743,-0.6566676347292236,0.957054662826774,0.18102186295680825,1.1812882081367704,1.1849731833451078,-1.4207669868458528,0.5923988510274785,0.7624975633182081,-1.7228671602060806,1.1858456956192125,0.8752746046111943,-0.24842630195446766,1.0897422380216497,0.7970426848266596,-0.17621684131304596,1.1398172035906708,-0.5022064046319773,1.3338184842808745,-0.9545403994420322,-0.0015128316433668818,1.0553956373014284,0.6978820550873609,1.4609403286212783,-0.9751682900366785,-0.20494493136042632,-0.38229646063150097,-0.530088502345903,-0.7615971638527171
24,0.08314028689420419,0.8401737257048129,0.5663726769639589,-0.17344996249859054,0.5527467629450016,1.1859786418226181,0.06049292015566815,1.8112062385556968,-0.3618060224217364,-0.6234249636588828,-0.5124093912485173,0.7827965682899589,-1.7061629226964816,0.5247002440309069,-1.390837742594907,-0.29457306013039675,-1.8181373862070103,0.3037532031435645,-0.7411690191054469,-1.1841489700371732,-1.1615801528826333,0.263079138991838,-0.3991647066038425,-1.2924798382895424,-0.03251093860170301,1.5306081555627888,1.4939212171949785,-1.0403795672303593,1.0080937343021585,0.685813636452198,1.04822833945773,-0.9506595607399975,1.675031474384832,-2.8529956262901326,-0.36540179117053456
25,-0.24900043968704041,0.9749297974517902,-1.572225293353682,-0.257306509130919,-0.9994167108069575,0.8074437125683777,0.48703801051577184,-0.9082171855789448,-0.06518805999634118,-0.9666557658815094,0.6859700854549775,-0.830247717043065,0.7477118302882857,-0.36994905390254373,-0.7452667688319765,-1.6385107990444532,0.11486431314867822,0.8861594624443031,1.601750973631876,-0.87841183980816,1.3296284656253612,-1.148772897692405,0.8327815306369368,-0.5581342249713137,0.5417102084195203,1.1035307909362797,0.6179006945115286,0.11035260286989775,-0.6216339734412137,0.29858030305293287,-1.5681385203352862,-0.13806895692150262,0.22131046099965124,-1.5380728764780256,1.5290103889605469
26,1.2787821960774948,-1.9163750785279483,-0.8830999193465412,-0.20046812870966058,0.4235274588561539,0.2885576218261938,-0.1822287694774438,0.5552566820100415,-0.8357602004118894,-1.2137172651365147,0.5798341431377544,-0.5934512505282199,-1.4212276879250219,-0.7195385415047482,1.0777301723623622,-1.7814643958406458,0.17143888329991452,0.3943285776333777,0.018469457289331817,1.715336475706178,0.7374136752594308,-0.12571614071193113,-0.5123056700454891,-1.6405106652766543,0.077758491060988,-0.9468909826098131,-1.154130138047814,0.6485911883130705,-1.3124965521060648,-0.18225675340907538,-0.8744449729201421,-1.0772692409897262,0.013246717992333764,0.07222899981192334,0.11665277579098517
27,-0.1607724633612119,-0.38965964629010647,1.5143625430885164,0.6547146517245469,-0.12967983647131995,1.2435583520240603,-0.928750521974573,0.03238357783399204,1.1039150046086303,-1.6839795678390632,1.5493045667890013,-1.266255483783569,0.9213216211762033,-0.9493170083197713,1.832218971402292,1.6512072423719302,1.4244777560704922,-0.4542518164739921,-0.027281495412327512,-0.06040438092194882,-0.43857297777554993,1.638334151552786,0.16775827077168473,1.5705380606599855,-1.8312746414613912,0.09596219304226432,0.8485881277501369,-0.11808641109882802,0.8634709846229232,0.5549246905845857,-0.40288432886775655,0.43417962469526666,0.6644776999707398,0.9952064992604059,-0.22267756066908076
28,-0.32731615275208015,0.39585003320416856,0.02855713537086404,0.6518027933083842,0.09628887098295663,-0.04396549297310945,-0.6531329328824516,0.06428066360345766,0.9235530518550842,3.741019726302575,-1.621541131800227,0.07324599469033488,1.6647916880584206,-1.080859692105797,-0.6170706652107786,-1.0634942679033617,2.589554418230172,-0.13206339349813778,-0.31159461893535617,1.2421754831523948,1.068025494928061,0.6813198742083307,-0.8055343600785554,-0.2253201993494618,1.1809240043644087,0.8289277499351162,1.77105533397043,-2.814640564512737,-1.8968441333205268,-0.2311551156688573,1.5263636639606124,0.8718740839981073,0.14568463191676792,1.5606333723300094,-1.0982042547505313
29,-0.11799955632034066,0.6873464443892374,1.0134964559011546,-0.0011495779087686638,1.089939504083971,0.6004651109933173,0.6081571093328897,-1.0343171648266651,1.3437960540324445,-0.6801473756728813,0.25928902321338326,-1.1199417227065818,-0.9843062872508728,0.08415914284478815,0.9163528951401142,1.0084325667679455,-1.0411545740600672,-1.3539784707638396,-0.6202527035026655,-0.20542622630560242,1.8923533261896803,0.70587847970925,-0.8957581523759882,-0.01893511797950323,1.1120555130065355,-0.8251940020595192,-0.753388242929264,0.48057549842507025,-2.7204795944079487,-0.7047155747854217,-0.0038837339637843556,-0.7131515579988414,0.4821303981427318,-0.7882205283728367,-0.4632346634201301
30,0.17905387782708396,0.06718886665419962,-1.1286791226217492,-0.13413848024950978,-1.7037807205990252,0.172652331532319,1.1972072211955092,-1.4300554858733083,-0.5758146530426033,1.461413048129243,0.6591586892371046,0.07539001977765965,0.421365467738677,-0.27349262846014094,0.9487997719491355,-1.5418505056429466,0.14857163013079078,0.7819543249819174,-1.7287853135733822,0.2761306820655349,0.17296896518761687,-0.04471238695413417,-0.372638675019003,0.9538308401024419,-2.547159454258768,-0.6827136513823,0.7322715195298279,1.5229502814791365,-1.0770735410149972,0.6307666380048703,1.0699098065549746,0.004000572414490156,-0.22507457747698892,0.7433531489560352,0.7047326183606555
31,0.4206043605707779,-1.4893043733392606,-0.0038645451481906967,-0.5862625555075172,0.4760239798743155,-0.8284129924349963,1.1047652249599094,0.5647385300120795,-0.2989685676433407,0.1954807367703537,0.5046050875505249,-0.3574830192989077,0.39375582311899526,0.07685995322622564,1.260930107242799,0.723390699346025,-0.3475330375238485,0.7995007302174141,-1.2678517004165615,-0.14220918946293223,-0.640698320259585,1.1213701592944947,-0.3201215808372587,-0.06383172402986258,-1.2207742236363512,-0.3937355863941606,-0.13673875827024995,-1.3083295939836823,-0.45750776796153103,0.9533488384224881,0.23075796577811356,1.0750682808662027,-1.4445910252373657,1.526253603620746,0.7001319870557615
32,-1.1819742489441203,-0.6333210052398126,1.2089380833662202,0.3413295633552535,0.579318833644879,-0.12444443193773838,1.7231262484436527,-0.3641023493309487,0.7498796122912607,1.7920585331545138,-1.411166057383273,-0.13019562674049676,1.8625489405004392,-0.7384220726931523,-0.6261909450925423,1.0154277671053757,0.030942176528964797,0.6206208257631612,0.21117379687734725,0.9024123644959494,0.052432565924192646,-1.9428694285893178,1.2366227524445272,-0.6894717573041592,-1.023175744085811,-1.4314865631487752,-0.06897606227426131,1.540325057000352,1.280485244484738,0.8163605850331298,0.5976735379263015,-0.6307359147282582,-1.0094598058207818,-1.772573362078141,0.30129386907449923
33,-0.9069702015527481,-0.21755788998836487,1.9159472266404498,2.6406717587957322,-0.19750214075774541,0.15758655915285974,-2.1392801908820633,1.1552398731191873,-0.1668392949255176,0.9244462846635367,1.046539389208038,-0.11419712844242311,0.6783560010672579,0.2514811979383248,-1.4338472851412989,-1.668517647435769,0.17834283160694037,0.9302214752656286,0.20590155659675013,2.3053891663508153,-1.1437032980100146,-0.05502163226018704,0.8387742531243414,-1.0129641167987102,1.2379705669416465,1.6730001878701302,1.1623785465607586,0.1591051056707581,-0.10944114928047166,0.9842301078327471,0.9153290813756209,0.7429697651842183,0.636952940142412,0.8360524780918084,-0.9374871081119345
34,-0.19040266407102638,-0.8802833316905223,0.3353026755554643,-0.6545983458280158,0.02687233436284257,1.3731320982566515,0.7824091933684986,0.21124456844928202,-1.6825119528125998,0.045948936130189695,-0.5524172910664604,-1.3598594849048977,0.13802046381876276,-0.5578121701451445,0.6295087817756889,0.3243698461124112,-0.6707914817561654,0.5885447929399827,2.4092899040318394,-0.3758195394202866,2.279887029224714,0.8803423653330551,0.7095050697844612,-0.6475829395170233,-0.6429665731176997,-0.3054812204463128,1.1731883110638397,0.15537241908412405,0.5161202646689731,-1.281630394454594,1.0954564791291364,-0.6145621886483184,0.43071568880856553,-0.5189608010762283,0.8505149681492646
35,0.7656178892097324,-0.34742380993405864,-2.082250602877152,-0.16737777671899268,0.43849003664386893,-1.9776202168591357,0.5920626097061711,-0.7051852875660947,1.4529065706761446,0.5880870423701647,-0.03553298030336472,0.47908409827022175,-0.8848485339397322,-1.039232349988069,-0.9673841597789371,-0.4716650817322227,1.2849005719876576,0.7357325681581213,-0.12319454031634819,0.1585304085282004,-0.6859850146048594,0.12326128585125697,-0.12556229382438572,0.24855775173856318,0.7722456434629456,-0.207212603726919,1.703178514551738,-0.39046759946338155,-2.6129627433474534,1.0664571349724647,-1.2054087737485466,0.2454431251890413,-1.6999825667512558,0.4888847511148207,0.9071145904461045
36,-0.49185320200397714,1.2206527714258175,-0.0996873574048756,-1.17202065436011,1.2763396822636046,0.9467240300952379,-0.9850956627518918,0.062239505939558244,0.637347605642533,0.7124606680252741,-0.7255456010103976,-0.2713216605448802,-0.0490723023873259,0.29638232441641527,0.9394364464040066,0.9812678130966784,-0.8179750633385984,1.1842721232291251,-0.6357091356876055,0.7213152429163188,-1.0886484486577106,0.37963583710538645,0.36838155542712964,0.07802120592847771,-1.1386485521424992,-0.5316228079962568,0.12840489384940437,-0.7490511343531314,0.14319392835768022,-0.8542586896472305,-0.4200680455764091,1.0372392776990658,0.7504652580654531,0.6674368722063263,-0.4058512852686099
37,0.833410662450382,-0.6258909867629202,0.8933267744589883,-0.30149223024594507,-0.04385412246227642,-1.243717285277366,0.1166803366556357,0.17761113570413617,1.1309142245800607,1.7327585574244877,-1.49910666517943,0.07336041244215656,0.7124441962589598,-0.03175242562185662,-0.6590371606368268,0.7154271548796808,-1.3291135199046926,-2.261360519148528,-0.4281522619995128,0.7330388109488533,-0.41100722203652773,-1.3127783329374896,-1.249936232550268,0.7450426169547859,1.2322886029275533,-1.255251233754961,-1.0274554037543973,-0.6672597133943046,1.1178715474839678,1.0235492139988878,1.943423154897139,0.13046801114475326,-0.15739334231968666,-0.16617056292435706,-0.14881733674912725
38,-1.827700128344005,-1.2318221110144125,0.07739907440592174,-0.49585968088335625,-0.11827184005194766,-0.28781395780046204,0.059751481803198885,-0.6022902153175254,-0.27087804966616685,-0.039478881367555174,-0.7532342130109426,-2.0202524575283465,-0.33400475489576203,-0.7673913924460131,-0.7591337075419121,-0.8154729568288334,-0.17129767890184938,0.30709181237078725,0.10314661935762488,-1.1346998886723214,-1.5417801530047626,0.7145879164241074,0.6355123742396046,0.5908558427616979,-0.835373795676899,-0.5558264580346012,1.437278419515708,0.06556697494445846,-0.1172742179831159,-0.42481170858789624,-0.9473125067896059,0.021457142223033184,-1.3238530396831503,1.6716012703080165,-0.5932506380037962
39,-0.6673419365390535,0.12855981067079728,0.8805452820389915,1.33482617357707,-1.1051424092911668,-1.5022990918449461,-0.43192299550563884,0.2215549518839428,0.16723445007303467,0.6096811259684645,-0.3344439401202509,-0.30447682187227176,0.70359610069308,0.9920027106659464,0.8048079669336397,2.066542931461539,-0.6248528671878272,0.10655143473231962,0.4860205054889625,-2.346403862814212,-0.6732231264749569,0.4501214889074621,-0.7590078243751862,0.25570007555026364,0.305289353197656,0.7954579636507032,1.1621498106958796,-0.9065785428772626,0.22467669746980468,-0.47899486459804363,1.247719566488942,-0.4929118816906453,-0.0273111684492093,0.8004245943962534,-0.6547864891074778
40,-0.36607297157910007,-0.13294849897416397,-2.389180998153872,0.7309747230560878,-1.4899100543755672,2.586228868459235,-0.7449401382734919,0.2227025865145714,-1.1636536886568447,-0.26545910578653203,-0.5621905315266489,0.29108810030334753,-0.31828323112244306,0.8905397491036791,1.4570678106898411,0.1913035760579841,-0.1389017183205047,0.6413080042281691,0.07854917521580176,-0.3030977978113856,-0.9426589966575128,-0.356699347137678,0.2514122982108404,0.971691456582752,0.23142875081780015,2.1969970817993274,-0.5768732417440192,-1.536674751609282,0.7695905884482508,1.2284356617566967,-2.051647650114419,-1.3555990471348798,0.7640686868591992,-1.1903550475933717,-0.9448695170389986
41,3.293003848662925,0.4822071646966991,-0.6193464968541479,-0.8391917791291256,-1.3567939556048711,-1.233379013652916,-1.747015878681885,-0.3133661453797507,1.058981644513018,0.051929564163432536,2.0089816955806863,0.7559246906055282,0.5281547038852079,1.2642188642622096,0.2723730248713108,-1.422854438230836,-1.2154093377692108,-0.6180039214326313,0.5796907408639645,-1.0488186411548408,1.6122039728746882,0.009499750449346677,-0.5688143579454341,-0.008781700095524182,0.5105152864890493,0.9623990907527569,0.04467523331846884,-0.9959372073902741,-1.0485492063611677,1.3851493329566453,-0.8421460607119606,1.7743397508662613,0.34747150467686894,0.7510495458980726,0.6613468595346954
42,0.23056139691933597,1.291973642737244,-1.0610911058709804,-0.0740826489104583,1.1983706935138827,-0.6624255760706875,-0.8155092520037716,-0.971307112310521,0.030855749536220917,0.23940177119690734,0.6163954170507883,-0.9231666559957027,-1.0301875715656845,-0.15472419380284919,-0.5533754475759959,0.07838346859245267,2.6642127078631357,0.6063364707408179,1.1791223341746457,-1.6367812090457352,1.1761084654198524,1.2738137013190587,0.5456493193032246,0.1148859271502816,-1.117213638891197,-0.2717633857462344,-1.3665273011825056,0.2645278883029785,-1.919259862142283,0.21213673911829417,-1.7670064834223727,0.8225978548730436,0.01894334678573843,0.22930115348838664,-0.7815770847448946
43,0.4931951030810065,0.3418509087397133,0.48989129552219585,-0.1732642187768412,0.09225548566207269,0.3477663583709604,-2.535552463046488,0.2514065281235704,-0.06662768267140126,0.2382359303478491,0.6107080892818547,-0.5955654529173658,0.026557531760490985,-1.0066496798652864,0.6897630313879317,-0.25276195262017925,-0.8626109641704328,-1.4706888418852369,-1.4081698759779617,-0.7092969993387589,0.9291151390585419,-0.22401674206298258,-0.12368459148105844,-0.58329992229796,-0.8318975149510943,0.767869807538683,-0.3302550472244117,0.6996381598956977,0.08649541567225569,-0.6407075992752946,0.5876160802373414,1.6864289058644548,0.055993454584436775,-1.8000110181264795,-0.19673059387714353
44,2.1482507188668363,0.599157790893088,-3.0835109731619537,-0.5686914991759738,-1.013536546932182,-0.7978087167207066,1.0792675549071995,-0.13588454023651683,0.2667665589021291,-1.6878808575660071,0.7680100405364556,0.22414676711458537,-0.5940022440352455,0.3060545813020056,-0.6223751181926619,-1.2646335283476582,2.0824728973414404,0.01555926410257355,-0.4109461706016435,-0.5061411457204811,1.2213846107126038,0.4574767321767073,-0.02335246949690605,-1.099624883018766,-1.2662851475652561,-0.496344679131525,0.5682376691835707,-1.7112693680305027,0.7234431805967766,0.7567398102886437,0.14476341132327142,-0.3469642377879412,1.4889937258986454,-0.16858260892688745,0.5891272226279832
45,-0.345553506652695,-0.593964052643977,-1.1810157805236063,-1.659790379830343,0.8824726455468078,-0.32075701936745693,-0.46662582402026725,0.5332061110032812,-0.8725795177126568,-0.6797660690342563,-0.4808624349634184,-1.0393316373465504,-1.6983417741360012,-1.6293830117137709,-0.6228401568661147,-0.4479633416413364,2.0007903076362616,0.956803544135885,0.1487590404127159,0.09469976028323149,-0.1516803457887475,-0.4981257494509887,-1.6672948117001294,0.01818549724534485,0.6024882424351159,-0.31639139455437887,-1.4262906599649432,0.12046093294270807,-0.45374218842936254,-0.24754519106790165,0.21718464009684205,0.8688263764707772,-0.0443545962612014,0.4981672315846739,-0.23520970216100281
46,0.6558291506012635,-1.3005575241537597,-1.1398529692499897,0.6795069470659131,0.2275033756531035,-0.32974047203343654,1.0465906638149023,-0.6819129360765295,0.665447827453496,-1.7849144193518767,1.0456159679174908,-1.4000681188620054,-1.5265689124898898,-0.6597223833359414,-1.0530374522519794,0.8657355882976381,-2.3272452996220427,0.38340048872564075,-0.7121556481418438,-0.030596041667979378,0.2350968254752663,1.078960668800144,-0.5083169699765159,-1.790656426748106,0.15428591490874605,1.0359749404310787,-0.8513669497583308,-0.9020662669922717,1.5025231906583367,0.41222593306072425,-2.768509456855157,-1.6266949522076761,0.717425870644958,-0.7435347564476409,0.24974743792407342
47,-0.3953515403117666,-0.4102227788582219,-0.25264306423602756,-0.7307421860908413,0.8342429513146993,-0.31965686924282893,-0.11788058930723361,1.624393042866455,-0.6653177058580286,1.7045079452055867,0.20145849958275472,0.9777138774907639,0.08969447194150734,-0.12306459423174511,-0.8210319706773574,-0.9373981276761185,0.6742786644127541,2.451660128004382,-0.6109083378498527,0.1233757591989616,1.001427720766795,-1.713487828885033,-0.06975690718100228,-1.6241846528156052,-2.0246929174240047,0.23851962603672444,1.1139986479630937,0.28976505494066873,0.18919456686081956,0.17365459801368735,-0.562851420015177,-0.38339430991996787,0.9691642014400141,-1.2875297124764502,1.0559089380277076
48,0.12301835517384895,0.7837205215830877,0.7719689385995512,1.2984824622266211,-0.18612064076703508,-0.2997451381697588,-0.04381024996216097,0.5962292474293607,-1.7379613258673041,1.0245025413268578,0.019639418745123035,0.764662006280015,1.4950814999617714,-1.254261198777586,-0.5584463679986191,1.336862820913332,1.0173330207081672,-1.0577366988874417,0.9098997908977623,1.3615904988856853,2.185814830419517,0.22919373305460816,-1.0851646631481568,0.7804843671191537,0.7882908586466966,-1.2476475730420555,0.1912925468051969,-1.568561033029085,-1.4271150019282879,-1.7804889236450785,-2.7118543093039738,-1.1332097025224386,-0.5608205128801484,1.016149864677117,-0.8996774531282634
49,0.14677801322100734,0.7494861507432746,0.2720650579577797,-0.28316414549770197,-0.008145764809720605,-0.3415058646934736,-1.32730006064989,-0.6731107394786078,-0.04134626278197569,-0.6780835026523847,0.9080254043024635,-0.9904873167959017,1.099506208314279,-0.14142415608930461,-1.4740362211672775,-1.0267381619268223,-1.1088495993520089,1.2715161314452277,0.51466846383266,0.45351613047606715,2.0682365141879315,-0.9148215280086773,-1.2618479953388937,-0.27079561834527915,0.8894458297638322,0.01179211865245204,-0.5687874922361841,-0.3409530092707946,0.39459011889980616,0.37343396547439595,0.7385187915064023,-1.4959257860168171,-1.307061980966962,-0.32416234018636825,-2.0070842872175363
50,-0.29417411808676547,1.2885937441020765,-0.24297100130456734,1.899244681469629,-0.11369885910166777,-1.2352907478568411,-2.7842244087727472,2.1398964116046715,-0.3759176770777275,0.6025748429746643,-0.9204968236017177,0.1262329358352779,-0.6998692231408313,1.4461096019062243,-0.9592227870231046,-0.8139615731721883,0.08409203496879232,-0.7393841030022794,1.4774989862263677,0.12176332420187093,0.011929113885976247,0.9115457343234662,0.03717137797686927,0.38561219465483515,0.005734241686083948,0.8868119663783371,0.9919663920965297,0.4241650749066787,-1.202753648120397,2.430613510138668,0.9504379824756944,-0.2836062381160733,-0.13583965526611944,-1.2389049246422532,-1.529219360407743
51,0.842544940582814,0.9941333324496799,-0.6337573631890763,1.1348436888460385,0.13111311865354683,0.4631385159872646,0.05637747175919763,-0.7108315314162167,0.32387484299673996,0.07513576792797273,0.8487535251268781,1.760249355747868,-1.2920855550561454,-1.0524624893671162,0.17439642763592625,-0.21092999688327943,-0.3816197410874116,0.7212869445395729,-0.35253398186621565,-0.9198172054415844,0.5790510232788018,-0.5430443442206991,-0.45671694042784805,-0.02847701203266436,-0.3988268645215949,1.4063251250306676,0.525669687716213,0.8463106074111459,-0.3949616356993531,0.2916044313185575,0.47887881713127717,-1.2568091448337295,0.32167686211030827,0.5264676565078774,-1.9906081897137373
52,-0.330273429985692,1.7329716361677099,0.7912561811256109,-0.537697998982437,-0.5692551286532601,-0.3061212522770779,0.8014878563527106,-0.7753178908828737,-0.0379858084609949,1.4281246603840618,-0.12810589350556315,0.4638853053247204,-0.18750266059630513,-0.7915168894599849,-1.1142828852058,0.32365832770266295,1.0508438606376949,0.5532232424749723,0.15627399768028616,-0.8037566082450345,-0.29953101842603025,0.2647077141346621,-0.003509041611133611,1.492369007709158,0.2288938714301289,-0.7265907630719763,1.1789918639201171,0.7662142791358614,0.05263502042361311,-1.541747636337715,-0.007921917239750035,0.018361834035069788,-0.7014671891055566,1.4205734181327532,1.4339844484749575
53,0.14156121503640404,0.37912225329421956,0.7693941317281718,0.13385604996847708,2.5596477384951384,-0.5694692179151565,-0.6966880592031985,0.32337570083354467,-0.8119389889828401,-0.38751990229505745,-0.8541745456340134,-1.1172129366253278,0.3562566098919365,-0.4766403164088696,0.6669587024776485,-0.2476870073275192,0.21344363638453234,-0.40388711449917936,0.16984198300646988,-0.03849397696341852,-0.620758570184844,1.0567017642699719,0.13225258395923062,-0.5408254248985026,0.04240500086305102,0.029812813266912253,0.6298350856823798,-0.3419463716253293,-0.04280453248600493,-0.8443825451879263,-0.07982218831321428,-0.24254154582595594,1.3289143037352704,-0.024861927330667118,0.7162875185789016
54,0.4274855189890095,-2.454368057323667,-0.2628181644424987,1.535236035635946,-0.25719133049120485,0.21935700514213735,1.8926773439853712,-0.25821960195024485,-0.14122375833240536,-1.005294486404213,-0.7177365686490768,-1.6287603927903789,0.10262624531663764,0.67667321357273,-0.8683018485425332,0.5960775626030592,0.23616160902796163,1.8519518891716797,0.8835041472903651,-0.7929692639884312,0.9265830168581336,0.47736958688662184,-0.9718585752571395,0.5761547866742512,-0.00317208288308378,0.8713525029794026,1.5316762584516277,-1.4629519769000743,0.6713194214201647,0.09001617690778224,-0.4978906869369766,0.2870486742113787,1.3189600242368908,1.218031451209038,-1.707368413422978
55,-1.0847463248343696,0.9885740405607403,0.6230135559029493,-0.6484710001383246,1.6031626475544238,-0.15494997231108684,-0.6016107800679167,-0.16413631740287637,1.2169717299744527,-1.069521110333785,1.2102248310738835,1.195892322538316,-0.8408309553837515,2.1547285038531014,0.22414640176410772,-0.2574723311862069,1.2660780622956953,-0.05369801159278712,2.250625192771557,-1.2901938780263205,-1.2974349148201705,-1.4469469790002807,-1.4479940115007408,0.2496482214532428,-0.26342744733939694,0.29057342671277586,0.7192575678605595,0.1845358242924089,-0.9844155037501947,0.41562453445530445,0.27373164959430024,1.2939499303100135,-0.33379904269523053,-0.14037415464853792,-0.47017151267366913
56,1.7603169686641311,0.5239151165979081,-1.425551348382118,1.4604901214581099,-0.8600636223490022,-0.44388810146228347,-1.4720541665101878,-0.02780677202264467,-0.44671555214035935,-1.226082098689378,-0.882191413030109,0.31003505256262087,-1.0755807062404938,-1.2923686832800603,-0.9109749830005777,-0.29634296217384554,0.030601915511673065,-1.1973817879397344,1.4893120942185807,-0.29278938772616364,1.5867955553952582,-1.5422792473266642,-0.5818552758839138,-2.141597331240536,2.0524671970444905,-0.4751282418935717,-0.3162931611727726,-0.019717392574111252,0.46683368172481043,-1.406145629533156,2.1079176111226987,0.6811131391919137,1.626761047342863,-0.6658800418794313,0.6386602832476813
57,0.01578186477018798,0.05329245623031652,-0.8062305654310759,-0.8589207287050254,-1.063546836394446,0.5327288273595217,1.3076286920693985,0.49364174284231266,0.8837195101318704,1.1597052875387035,-1.1600212867460118,0.09313853799451285,-0.20955474787006537,1.9210128094961378,1.4904311906467345,-0.3029915153382855,0.6054421476470254,-0.7076630906603882,1.3836665866009272,1.0403883409130772,-0.9805752906974216,0.2104470707660352,-0.34003966136339936,0.31122088663670694,1.3674518992956775,0.0770664895203723,0.4170003864064429,0.2643267736130002,0.4975874950586187,-0.7727697818921634,1.0894010716474598,-1.1968206294256158,0.7804071153547506,-0.14787267538930088,-1.1627880488470763
58,-0.351024258673285,-1.0512864138873135,0.5390927968559027,0.33227675877669616,-1.0738142691259136,0.6949965548723357,0.4555750966298373,-0.344949143525681,-0.4838035888437401,0.25334365278773513,-2.715470474485437,0.10978031017212847,2.7667392274007416,1.042166681606714,-1.5689665769741152,-1.2398844121981096,-0.1209244213081451,-1.045536240440881,-1.2039517984037689,0.45050755206631926,0.8705768598236056,-1.028708197148647,0.5288569092272937,0.3245857976417868,-0.3356519860098916,-0.44282287094155437,-0.16554921477699647,0.7556287135946653,-1.512714883074377,-0.15171574380837044,0.8541978770933242,-2.033135237377994,-0.7529928040102204,0.01106429108435213,-1.0867515982574945
59,0.08984106528036293,1.5395999472929214,1.0709307702650885,-1.3794247026126567,0.5690995999291173,1.4647338962548417,-0.8331285485549456,-0.07280442712504961,1.2499783757364127,-0.09651435879527819,0.3139990881873913,0.5574239905764491,-1.035502015170636,1.0755931948808088,-0.5627239864967293,-2.1932279875728944,-1.2483538582799967,0.9064491553773733,0.7896839834341598,-0.6017103028231892,-0.49532484174799246,-0.4805469138153911,-0.40627077561239777,1.4059733035876574,1.1462715541910604,-1.5393342233931582,0.23922048500949034,-0.6095543080882982,-0.9574506428698925,-0.10986273428992202,0.9449837082147359,0.035131472105323545,1.9096547258728562,0.3275440853161828,-0.6459866981819983
60,-0.3586006041910112,0.18739636687460887,0.21101571741859967,0.9585784589900033,-0.43966514515247457,0.23783966175456375,1.9660070674430605,-0.6474715752202262,0.7216194908499421,1.2508936680195932,-1.5091983302717802,-0.16947196187111027,0.3492802426702096,-1.042021693116914,-0.19526751991521382,-0.45124336894847183,1.0319097928891532,0.5281295651165366,-0.2301796486399943,0.5105521022476337,-0.11225113006248566,0.05787773698002465,1.5135280657883574,0.28813923563115496,-0.37827395519578594,-0.2680270301075121,1.097000965747674,-0.37034234113706854,-0.42738903554561375,2.1281327233655967,-0.3008368326289784,0.002712083641506435,-0.5902399556012617,-0.12825455994054424,0.3777614533992081
61,2.12364342347208,0.4104290769382114,0.9970714955946863,-0.05819248597651085,0.12222712370173691,3.6603702204035744,1.555008121936811,0.7672036752517672,-0.6742222385797209,0.8444700784712345,-1.5247298903547468,-1.0459474288116537,0.49026088063315426,-1.5578314516100904,-0.06399268817558494,0.9169220029026849,-1.7311631273577546,0.7287948753381251,-0.7400616808280625,0.9050897708395871,-0.3941659346020619,-0.23139072498611704,0.3928420824196037,-0.5316855760470731,-0.07758260803512633,0.18540564475285268,2.133872139376171,-1.2869928405811304,-0.2273554275963593,-0.8897188065471264,0.0070856766988418455,1.493177982061331,-0.2187444677674744,-0.5640216843023828,-1.4083479824713558
62,0.20983521451671516,0.39509036888373966,0.44856926957288534,-0.40036590204267075,1.4256795482843807,-0.26699044092571533,0.01796077049801075,0.15936545414361566,1.6081692218065522,-1.1685394799870135,0.3192442450087212,0.4013261333874173,0.7153738858805677,2.060869323038914,-0.10900934824266006,-1.8144658877748299,1.0231909285428586,-0.9945613223603181,-0.5991589875294027,1.0797793876248059,-2.0461008387065,-2.1756742547167507,0.2567197090417023,-1.5254398847193416,0.671201532983554,-0.5465795685239725,1.0759666367361342,1.9592142276621058,-0.5670706462635868,1.4008046381174823,-0.5491416911945465,-0.659568827958479,-0.19228110190947914,0.4396906970501861,-0.43380776319799913
63,0.9859876900023465,-0.6977340741940976,0.30840582419563733,0.3046046854478716,0.48369156323459644,0.4216533156261463,-0.35579501545644604,1.0910019525951788,-1.2600084653611134,-1.5050424689591495,1.0021329952309599,-1.326546004328583,-1.0209656313138034,-0.5031071798069814,0.8961967208401536,0.9253542359175136,0.03758190714420402,0.2846535974194819,0.0018475271345692935,-1.213961072138711,0.8530587689602572,1.000674048084056,0.31897753799401574,-0.8148246399993759,-0.505219274420394,0.3333598883580282,0.35974282774115957,0.2836612207144199,2.0753978109513773,-0.37290215781025066,-0.6502258539597746,0.15651207840015258,0.5004134872262478,0.4088002097017756,-0.9515233457955432
64,-0.006392845537726372,-0.18091668666729513,0.20401373453272956,0.2936158299926773,1.1832434076208618,1.0568754985006048,0.8521552797612263,-0.1792068277124603,0.3830810342522287,0.002723063901814221,-0.31864980151651634,-0.5240894266230834,0.6158155071229937,0.8938406952562744,-0.6989425719227871,-0.240356936054627,0.10597837488234503,0.2589149556382534,-0.3003059900775206,-0.1972724345734594,-1.1666991453446889,1.2379603943882262,-0.21553813966980148,-2.105778555719481,1.236475077195566,0.170365262867489,0.854783002355356,0.4587055429096212,0.6527773725595564,1.6833495744494742,3.027981322812694,-0.2888856339009284,1.0428788504418067,-0.2046565626397311,-0.3395947061250344
65,-0.8577383387803925,-0.3609823552214574,0.5530073327823916,0.1573976488022752,-0.8393088279388646,1.4183744078202047,0.7940194563020515,-0.3174668068676336,-2.7568190526924767,-0.7925026687367247,1.65854522373612,-1.1133842201649338,1.676537805672686,-0.06921275666708372,0.7253733724269498,-0.9666326279555413,-0.4230658562454437,1.3453339276859932,1.9420468637203658,-1.6864121821517073,-0.2734672487691205,1.1661470101359288,0.23529830083839998,1.3883124650714398,0.1537221836974737,-0.8704346402789294,-0.9130156215236729,0.9305131582872678,-0.22638761721682493,-0.6224208021294539,-0.9234483786321503,-0.9691032363262252,-0.7543091488068623,1.1090121249653877,0.16245542191713472
66,0.4477798608695906,0.06689945528171275,1.8553177032448687,0.46554961848886256,1.2673854633800177,-0.9339575102530828,-1.0080887130707696,0.5591414202277935,-1.0494655490826925,-0.20926936561440423,1.077493467128698,-0.9223671351464583,-0.5667245992820169,1.4141530361745693,1.1553965660431713,0.48848675341533276,1.1603632250130103,0.6028351531203575,-1.5664474602113687,0.2671109545614028,-0.33552115604168126,0.8684737203855499,0.9394389501276211,-0.48050910967428473,-1.1488284720528885,-0.12415975466653442,0.4352037594524709,1.6681261007150097,1.0704912835218054,-0.8425727916423237,0.09498648972142715,1.6108516352756352,-1.0867950665649286,0.11873151745162107,0.02679808746246275
67,0.6835313444659892,-0.9273404983669844,0.22915531391257743,-0.6163504989573659,0.4128046445016475,0.44975529964050015,1.0477773093872662,-1.82600289342,0.9249508406041661,0.4013149955203234,-0.5161729553760972,-1.1709859227445762,0.2713576178822643,-0.7899641815163639,1.0275034720380638,0.12433667677846237,-0.24227950764426465,-0.13617029838108916,-1.2009468259926515,-2.787253756992531,-0.7500433162657973,-0.8987553678229661,-1.6227808265340098,0.2264903426923927,0.8275501372923915,0.5576224625279735,-0.616393590536108,0.4879577997710996,-0.40800498006983715,0.39184734793518655,-0.20747224569370473,-0.8133721476037138,0.4480115791644038,0.5685599897501328,1.0936742839493117
68,0.42233341760425913,0.8898888418059092,-0.9430624721862989,-1.2267908156277079,-0.5702306643536267,-0.3271993078693503,-0.7627475044842088,-0.12953964701563928,0.8790368225742342,0.07976724496296075,0.7957344270461101,-0.561375042747071,-0.018478446542035617,-1.7408485284143116,0.9796010586662713,-0.8938661376983377,-1.0115497327788232,-0.2931490234059543,1.5556940651393,0.43912471657254687,-0.5984939189649311,-0.2328569499437717,-0.5649368064109626,1.1015366805133335,0.27437493913515626,-1.5370551198851472,0.49604947757033474,-0.24865160642362408,0.172741626457294,1.2335686949837141,-0.5870880279496882,-0.08028304465112475,-0.8347860459938697,0.30617861814267794,0.2618998283723774
69,0.7373628888672653,0.9812026859151826,0.4581789267124225,0.509155616102367,-1.491740652595839,-0.283688983234379,0.7477509108063571,0.45854027791157403,-1.6845196469282384,-1.161778454772183,0.08180923086931018,1.200127550387157,-1.4988114913739865,-0.015057743061363447,-0.03461419620176876,2.828253429499357,0.14530813007682117,2.230599309298373,0.6824359045574371,0.2906412243819713,1.3760842337147605,-0.03416140959199479,2.055188350702121,-0.6766726477760943,-1.883068412499507,0.38636549874479514,1.3982153559212378,0.5556397583407323,0.10719522301276443,-1.5220854203184506,1.4813194579624842,-0.9575843004826043,-2.6604454914766795,-0.8503021864236876,0.47355765791507537
70,-0.14813741713012232,-1.6780418702898279,1.6338878575366644,0.9718825763658433,0.9410889479398622,2.1162073484938873,0.7702707685154355,-0.7101958194904282,-0.774250812492845,-0.5978445196011299,1.7273461972311308,-0.04257862003257378,-0.5643950634059277,-0.3427139795315305,1.5835407436480289,0.18998501960103725,-0.25296828883148414,0.4921814993334833,0.8152655741429685,1.592282711439944,-0.5278017954181996,0.6377807390081361,0.837113991413395,-2.551985502856398,-0.08263099652401713,0.38451441267404907,0.6641450759391042,0.16817521508322567,2.36905539458509,0.14590455192505788,0.26059543983395017,-1.134968327374629,0.4222243886446266,-0.21381171217639683,-0.6776977809722683
71,0.23497690364092622,-1.2124333826639833,-1.28837604683551,1.6155194605577106,0.41125365611991627,-0.019281452922105338,-0.8790025136122976,0.15644689527116334,-0.2471358318444724,-0.7649549049738169,1.0900996132076668,-0.6462651958733107,-2.178218831415168,0.4769894053038542,1.8922491996109698,0.362579902055304,0.0625281953963033,0.7327966652425231,0.538668602303815,-0.25429062679570535,-0.6985989724089564,-1.2438451567612188,-1.4450686963268542,1.4384773613101822,-0.47949082385113184,0.39387984840233753,-0.24460390405418622,0.1696882755895976,-1.1975751924824611,0.31851214922547105,-0.176573019671207,0.3836303955154305,-0.7440438411286607,0.497332793672161,0.24843349500800363
72,-1.2334844086470254,0.08662259734119976,-2.184484224274049,-1.5005429203429208,0.8622727550401044,0.89030582874158,0.19794831799143767,0.8185074651537234,0.6572236773869837,2.9493169457523063,-0.22986686035874532,-0.12279928203801038,0.7329182030610872,-1.2145220147290685,1.3387402962230655,1.5833604145710396,-0.412095957315777,-0.3827791061181214,0.06991463113104619,1.1680203532790168,0.46399292672106657,-0.4000419690976381,1.8402819964770518,-1.1848185707193515,0.9109068331821344,0.02195105471229847,-0.05713319729587826,-0.9152967734170955,0.8197699233197857,0.7497855845730523,-0.6243777856262199,-1.412513257566026,0.86493700547173,-0.8228148538151112,-0.3068383057877723
73,-0.9978901704913136,-1.4367162567033485,-2.402030616945681,1.3630901677729288,-0.271040563930627,1.1940977438572,-0.08026132204379696,0.9796599314420068,0.22570551877369024,1.0244771053078756,-0.5328612225997361,-0.797506635200544,0.1825887863243655,0.5606051847644512,-0.4961594918993591,-0.24687662695014234,0.08905328058514729,0.28132759219699777,-2.2031187605934184,1.3942379218363643,0.7576767958196157,-0.11728662790199161,-0.2935641448256666,-1.580791624823895,0.7197767247650092,-1.522844454438951,0.8378564316320547,-0.09274786480114458,-0.3826835702910702,-2.5629143248018575,0.006490537751118463,0.3740376165327592,-0.19844448601099748,0.5204690233353685,-0.5622693146228669
74,-0.42213892894301525,0.45193398395616335,-0.08233075896075415,0.4931698191656608,-0.27481244982489567,-0.2261270990175644,-0.9642839630677648,0.4924211052363144,-0.2899615275319638,-0.7057402374321468,0.6210855056439015,0.055133754796822886,-0.08647335865301006,1.7255895095459244,1.1830825552087052,0.41672719440084643,-1.0192695182946514,-0.10457035791120997,1.072402240264719,0.21090712151066876,0.5017925652599174,0.9450885969596089,0.49829671966133077,1.0897432552997377,-1.1549304903136481,-1.3342359595298412,-1.1184927914004055,-1.4086910577133762,1.67493728135006,1.2970648577895296,-0.437037508321803,-1.8594188706259114,0.4463909031426546,-0.7976571104909358,1.185351402619905
75,-0.021423317448041247,-1.2967419716482607,-1.4181724964598712,1.0339578331228445,0.5836703649187674,0.49520421268406095,-0.07083981557096272,0.5892200172930342,-1.9660913650494638,0.375874143666966,0.4276848285943623,0.10885719059206893,0.0784526791561092,1.2984973394892667,-1.006612523337969,-0.04116912268507969,1.1926600932786442,1.482611183231627,0.14709032508453707,-0.16968835109318123,0.15011589854804008,1.2439871321411349,0.1100223165897143,-1.172140949705521,-0.9961327023340519,1.685792788409063,-0.13663846607377525,0.8174568188986494,-1.1099767310793303,-0.9817941919041705,-0.6905196546439443,-0.9198958653602793,-0.007368445645197091,0.06390972205730189,-0.7541325968329282
76,0.31939191237750075,0.4410159451587652,-1.7496969449213722,-1.371664654777301,-0.6698418290715696,0.5829540088982668,-0.32631907115284986,0.18310036223565423,1.5693707025072783,-0.5094362590147223,1.7688130905055097,-0.869900820264376,-0.49731319137376817,0.1814171659999594,-0.609138796104767,-2.715228767800764,-0.4936536249286754,1.2734365352305614,-0.6164569184844618,-1.0766190642488749,-0.28070572835973556,-0.5254958786662879,-0.021223193784214694,-0.22675706360178538,1.2877090255514685,-1.0186072288406631,-1.3121924212697014,-0.277565095772221,1.748118391853225,-0.27805235780322457,-1.08393082129393,-0.7978691132556373,-1.210022401581161,-1.015830950435243,-1.7823510103626659
77,2.0589775039381863,-1.067453870618713,0.7911445175251203,-0.048843130256639514,-0.5618436794899988,-0.8358658495922588,-1.9668373437037334,-0.9005640490668017,1.7205088449543706,0.46188206905582874,-0.9602119448723778,-0.9682673946082805,-0.39297329704561645,-0.4471323785359395,-1.9814173407513453,1.432274333517644,0.04703592332160617,-0.4302005322201328,-0.024678476457935528,1.1438780504358996,0.7540763734987148,-0.08654775984553945,-1.0405425760113753,0.28628049587783716,0.20016695267504156,0.09015198472060582,0.8766021587592822,-1.8186302316099445,0.20442149693620357,0.8274405744794305,-0.5169520156868311,1.482478494032611,1.110815837241085,0.7023425679113646,1.740840677027775
78,0.17782799017368828,-0.8261237544451643,-0.8529073127221368,-0.47389929698485544,-0.9343247192261482,0.06431084059281188,-0.20716200247401897,1.5314905532613166,-1.952449750846988,0.733459485603667,1.9019214266177016,0.7430165033032162,1.0753923007605737,-2.2716544313559592,-1.3445792060934767,-1.1042258883781706,0.5852419643099769,-0.5453895456332662,1.6964249527046742,-0.8172145198901186,-0.06196839839981251,0.12546459925646739,-0.7640641263436564,0.5856541716762015,-0.9070340098191041,0.15047235098064954,0.3447123753612062,0.5671791483680765,0.8274981101189048,0.09256334019730002,-2.1614300670618114,1.4274976169140765,0.41334482596358135,-0.5902767365511262,-0.22337771543584387
79,0.4073795473969115,0.7382276762208807,0.7563241895825609,-0.12618310086616583,-0.5224971050852283,-0.3865942284804727,-1.0293362676109175,0.532224187223162,-0.29330032531118494,0.10757601869981535,-1.0617067115811076,2.136998633716696,-0.8331668493021753,-0.07466417404476901,0.388188007336569,0.6705813143704183,0.7169820226069767,0.09479268562261096,-1.946817593971045,0.0002593553854986552,-1.1633954067471932,-0.46399759654704126,0.4094124530683393,-0.03671109122156965,0.757229005625005,1.0378589937521554,-0.4835914224738729,1.3522192323605935,-0.4551686335180637,-1.123306789773671,0.16477114583903502,-0.8576498060457615,-0.17468394980233976,0.16374217236045951,-0.06366328221054812
80,-0.12278178031167285,-0.3680780235688002,0.8453989099788416,1.3248653042683793,2.514952277443357,-0.10067563672825877,0.9504555536048139,-0.6257086565536152,-0.6211847928548138,0.8554996569029572,2.3041024625632445,-0.06555968147401835,-1.4033554136674893,-1.0193653446175777,-0.06550556092080885,0.6161707338514767,-1.2181084338977894,1.9147068229687632,1.5870741088645572,-1.237827329061703,0.2690362210260578,0.7123583631975525,-0.3089088456494259,1.2414532769086877,-1.4400419365068282,-0.3773518444034222,1.0751432697377188,-0.40277153370181956,-0.08029998854716844,0.03372777166825637,0.3547433945504254,-1.7630568856634594,-0.9381991824359112,-1.3588623276668745,0.6922768228276567
81,-1.2822421906994448,1.0100887058250692,0.3726518570376788,0.09758626168909837,-1.2343414433108415,0.07252813525055135,1.8295177514236596,-1.777008783186183,-0.381499606446419,-0.4735625181015899,-0.9161675608159087,-0.6699553403090958,-0.16490779580578233,-0.04172739930831104,-0.9017669278575274,-0.19418474974621097,1.926032802862675,0.07941980288717228,-1.5240277584162343,0.09755657345862949,0.09883944699405414,-0.4943607548223691,-0.12843074676244268,-0.40271433897431924,1.1364158715654529,-1.9202375519134123,0.5546527227350599,-0.1077946612176497,1.1063171090303188,-0.7253851253375064,0.14329647636275106,-0.2525219887358646,-0.25783190958979174,0.17873457589430863,0.8232809063806773
82,-1.1989369116413158,-0.44439693095326616,-0.23397171630209107,-1.053448192746704,0.5639933230946491,-0.2270159847933126,-1.135565589625989,-0.17774979117210246,-0.7965233671426176,0.9203977172364095,1.6504832485682517,0.08317858275611456,-0.35837548439165173,0.6015974801057843,-0.9979455849641499,-1.248223969550802,-0.9247242191411302,0.9719243939569079,-0.8019193810997423,-0.1111894938563921,0.7290299856055514,-0.507852572143715,-0.2952635824071873,0.2504019331068511,-0.08573089717687735,1.7370018054385357,-0.044100044910946525,-2.8927417699611238,1.578246757539274,-0.5197295090017572,0.7339098277124416,-0.7350699142542038,0.34904319137587125,-0.8170651142461522,1.5923278437685784
83,0.2743503579036406,0.48490471472556096,-0.5211257862598062,0.15897229280061623,0.4570560066015787,-0.7057030429980842,-0.4075969140571203,-0.05286763712726894,-0.6692424447764478,1.2511315674566368,-1.2536805986439934,0.5538770666199101,0.2382116956919869,0.48173511884837256,-0.007517004564542354,0.6549468328212197,1.1216153043252495,0.5785111227893445,-0.22964672655224574,-0.9729890890989665,-1.8859725429911354,0.04554569698665104,0.20995934385027737,0.09769691852813037,2.789162550357264,0.23416842646740565,0.7844201256292056,0.4840741196366192,0.025764375196192082,0.6186191208316034,0.3346424553513382,0.4131392645986687,0.5635356421981474,0.17749947420341228,0.36569037347056144
84,0.49388204652436923,1.9128989623344606,0.007479711719334078,-0.2560914527955438,-1.3985575840707476,0.6908655532490553,-0.22936612297336648,0.19957890256430774,-0.09101448581834372,-2.2479796449118403,-0.03574463550378294,-0.5797174280993181,-0.4380810277284902,0.23440603887291198,2.4232679559636203,0.4908723069703628,-1.3686865983458227,-0.9768415720374184,-0.7136385288200714,-0.5466847946965407,1.6435263537136162,-0.5546251600135925,-0.00037168573019403226,-1.8948226489578686,-0.9890378632400347,1.0096087072060953,-0.8810978730937806,2.1162638228978348,0.6602040859430969,1.7051443487701456,0.6166381297307597,-0.42207461259735224,-0.7583146814544106,-0.46179695638544793,0.048152131614428245
85,0.9768229675260729,-0.1762214283270586,-1.1568698525781718,-0.05808470550430437,0.32552322945745954,0.49504520669109026,0.42812318486788564,-0.9624740650411275,-0.7712171424203943,0.44245406062602666,-0.09110091134627327,0.4982442360120832,1.5645438419079916,1.541932238680649,1.896332207846189,-1.336696458621366,1.2977971008768112,-0.22047625475985386,0.9814999962349877,0.16531739324823375,2.849492333436663,0.09008077328775238,0.15414385072424436,-0.15853175933458588,0.7901370498947458,-2.4914765461924273,-1.464891603740042,-0.04298025046309225,-0.3999278991991881,-0.7705307657708469,0.7635207016599352,1.029282268616937,-0.4506258238864975,0.32998867105972796,0.768576040929319
86,-0.49381465437372296,0.367131492101695,0.1340136955470176,1.5027793937174516,0.3299055785250905,-0.25374100495337387,-0.4731415369277574,0.6532905444438917,0.4093563358880063,0.5801245598185688,0.48872750484853456,-0.15900770005447454,0.7426187146629185,0.2980800631346536,1.0571745649331254,-1.6578021642446454,0.4172858557966528,-2.261873643846473,0.6127929610645383,-0.09109647765850229,0.9670053776513113,-1.0078845609149967,1.365146525299306,0.3851904820559992,1.71706107603347,-0.9923977994089942,0.1295931032468149,-0.6916975812601175,-0.6193985791444292,0.5403012156589422,-1.5619599179008918,2.0967825499403068,-0.9053852831718269,1.0035877536356714,0.3421258513127852
87,-0.6559970887898391,-0.6893748870645822,-0.6988807620734883,-1.5792567439605065,0.5855914997554011,-0.4457796927178113,1.539666664258883,0.7334999605359761,0.14284317289233023,-0.12629365298335532,0.19245031163676737,-1.2049612957575477,1.4492463505126356,-0.24073459478872514,-1.1236939254404976,-0.21069168502691085,0.37857140545501583,0.9237220049846746,-0.11881924104917752,-1.2559176761208817,-0.9570502058907869,-0.6109366574539954,0.37283801194023236,-0.7563252968737012,-0.16719635332569177,-0.6197007438246145,0.33742528185600257,-1.4974207559845538,-1.6921100014864001,-0.16763262096828,0.4614951074697335,0.5865587522107077,2.1128143082639115,0.8689009474452088,0.1171456180907339
88,-0.6177259366775609,-0.7826742460893892,-1.057746549490919,-1.075521105062756,0.7894441961244003,0.9484030218343282,-0.2643588976919716,0.9977642795853519,0.13565654825683873,-0.4681365893013121,1.3105877735696152,0.010953551237216143,-0.7712177675778648,0.11673996879171183,-1.9867805511079863,-1.1358036307872303,-0.7632476326153766,-0.7530227608166911,-0.4090154323387868,0.20928433767431628,0.3833791079950808,-1.0629925497245454,-1.7063158579848932,-2.331316538111304,-0.05117854906547384,0.6240590386558138,-1.0679552906433587,0.09697237880814792,1.1734109926713965,-0.3638577650465488,0.38029977974389034,1.1250769625655386,0.871802491286789,0.4547417530449557,-0.9343525695920868
89,0.004036530406126843,0.29233058264439793,-0.47876946848993013,0.7685964781616111,0.48396726981475147,0.09427547686716282,-2.1902571618882942,-0.7581574028642817,0.1260208779096767,0.002139928947749982,0.3651868191242562,-1.5639943132583685,0.7205127855470337,-1.017668141770376,1.0635478413612653,1.2042722370332337,-0.7274638822943155,-0.4526865055217965,-0.2839753990947748,-0.9307143738662689,0.20192815293222094,-0.2769530932288802,-0.22278699927010145,1.764204924372084,0.40524212474620824,-0.09290864131290401,0.5773779934383505,-0.7808399535095001,-0.22925698806514838,1.521696988976171,-0.803329578389988,1.159470567982553,-1.2941082702785431,0.6302773654097454,-2.1319263757932454
90,-0.620313417125866,0.47881481984928387,-1.1904647259168837,1.963269085131406,0.5808097051216036,-0.6496204308939584,-0.18913708090426404,-2.4271272982584664,-0.9564758328977151,-0.45965021632693775,-0.8676949258873428,1.1372002102541676,1.1019616121825226,0.6497742638584568,0.9828892667529902,-0.9288552494063564,-0.9713336349145095,-2.0771784300716543,-0.44561366726225,-0.09624382335728214,1.1271095162435485,-0.8713250533008321,0.3843779467928355,0.14108712462193335,0.1481054309588425,-1.1875286952780522,1.3390254891245925,0.998026148730063,0.5768620561641153,0.10271314670509604,1.0981345528953093,1.0083045488816431,-0.7568077702388069,-0.49155565620944325,-0.5619808322681173
91,-1.2917064316405273,0.4051360237165408,-0.6231823740117199,1.1687952952008256,-1.0650136110365496,-0.2424644187694647,-0.8950938732582725,-0.6091691737762025,-0.6202853476309886,1.0562882926452972,-0.6890419276421795,0.5511187987705389,-0.07121110683196728,-0.2545112055860142,0.2522153970045259,0.45835159659188757,-1.4010875756368755,0.8973174764106168,-0.9451003963281875,-0.3596786866074402,0.5970208536623267,1.0735376089446227,-1.7479286955721605,-0.037900181166116875,-0.6419998609684373,0.4485493520986474,-0.7237422628685954,0.34672154970127295,0.7958220131524194,1.6441968041471997,-1.9603731864230463,-0.2022235407489192,-1.6639340625507113,1.295779207364845,-0.5686929874568422
92,1.7626903677587922,-0.442071536642866,2.643099442287211,1.962425263242264,-1.9505232817094462,-0.576653672469219,-0.31029440529594543,-0.15867147420956346,-0.9255653132134243,2.1926305330832307,-0.7255931606080613,-1.6027915351408417,1.793372125676958,-1.0862779083970477,0.8009764381012876,-0.9453877685092624,-0.4230287834258238,-0.6048203282332882,-0.9216978379001557,0.4748136720428129,-0.25858444489953164,0.7652604685026314,0.0753515587335451,-0.24626110991203334,-0.273113349453946,-1.726922079070219,0.8878547653630425,-0.313398234486373,0.589769374685663,0.8331006857809192,0.15294534060877046,0.7405626864926083,0.4757258486774005,-0.7011693672570377,1.1129969661700085
93,-2.5998293748223107,-0.6383644300690218,3.4574636984593146,0.6712699884366538,0.2819571867272454,1.7309816804745222,0.09234558265795957,-0.7743130119856452,-0.47879625949266336,-0.012236348631306538,-0.20059528998080664,1.42980087434998,0.8239375642779421,1.6793280345167534,0.8374349038385175,1.8227188436721855,-1.1438491831189734,0.6102230325322368,0.20857081591946353,-0.7165823327327697,-0.16249271957333442,-0.3142993650981564,0.8766181143012098,-0.02259157685249366,0.3149189521956372,-0.42072384769693605,-1.651332018874095,0.6704558300531849,1.692143447121671,-1.3337053995247434,-0.6420190204170146,-0.7061769187910995,2.0761193555386175,0.7243659208827006,-1.8394533007113947
94,1.1549026837992682,-0.2585234062588301,0.405519597925867,0.5489267813797262,-0.11644474358937168,-1.2830090083800516,1.3559650686263924,-0.9666865471878368,0.366025076907054,0.4787398496304196,-0.4563304161193444,0.02851473165017779,-1.5352123449080202,-1.7435238345137978,1.4237132871317448,0.009111657704578039,-0.2016572676490516,-0.22398607524055256,-0.2574838952224418,0.4286547198145675,0.18423759763707923,-0.5806593212326129,-0.5957774541519967,-0.09351564864552507,-0.4419152282543564,1.3945925364673266,-0.42038176514409725,1.2121454408955075,0.41154899828051483,-1.4245715411827378,-0.8315695674444831,-0.8230522279632408,-0.09622714693427185,2.073206935631528,0.15858451546212846
95,-0.5120792697346707,1.1256727777094873,-1.7145449938689246,-1.8206202990798281,1.673693572901255,1.5054474998432172,0.056555974617506784,-0.763654471987755,1.4369152161883092,-0.6935791991161051,0.4628847634249774,0.5194875401382721,0.0005109814486576244,0.2467551460445962,-1.4073068194003777,-0.6631064132393003,-1.2323958219483335,0.29580567498913024,-0.34344829850217773,0.05502155686902678,-2.866328869454922,-0.8282632530546978,0.3809585054276364,-0.8145031434995689,0.2697985687777098,1.3060900865067488,-2.0269421070759854,-1.5227964931076687,0.7461833167687534,-0.26571610315023875,0.9969473485121116,-0.7801331468477809,0.5609301979277871,-0.022343624260230094,-0.18225551084737787
96,0.15652272944825957,-2.792317679225572,-0.8889687853350047,2.337766851782949,-1.4935842841344722,-1.379987347802225,-0.6770920364234718,0.29683062793751314,1.2011535310364392,0.21380562238934772,0.41710624311961403,0.413426094380835,1.1321779778536936,-0.8138939392769733,-0.21941471674002272,-0.027183961831588596,0.528948536864135,-0.18639983408467325,1.1959402294810306,-0.058951498551055005,0.691235248887292,-0.6856432292349395,-1.392642885796802,0.081793144318576,-0.6466160693866462,1.5237815132723358,0.9135268966480486,0.36276108991411926,0.23545490580453382,-0.547593713251701,-1.8963662355828055,0.5706362088219296,-0.13585217062508556,-0.3636035916049619,-2.3069054514404432
97,-0.7817254732263651,0.14879748769440748,1.9547007521942914,-0.26352388191070286,-0.8065229160829794,0.5665107501914115,-0.6645025018097958,-0.43535243749101904,-0.03261477788218296,-0.5853480483506085,0.6018824647750017,0.6164761726515599,-0.5825312675808548,1.1762153754351903,0.4993376599223503,-0.6645429809392194,1.5552644928341928,-0.695595296829893,0.4466987930114836,-1.9670789664992538,-1.439528316837621,-1.449926718283384,-0.16157049272227272,-0.11584446944121518,-0.7745774796459908,0.8835938931274934,-0.14992811388297833,-1.1990157180920908,-0.7232063784191892,0.14362100883053258,0.10869327776030976,0.693714540051629,0.2600406365186,0.39055566116970225,0.6705411435294808
98,-0.4555295062769358,-0.8694787180556727,-2.5682052768252115,-0.37074840356579947,0.07424389595249387,-1.3005312533021751,2.1592314672865807,-1.3180980416927495,0.747055234541549,-0.9534576124846051,-0.9589326153640717,0.10858509582135259,-0.1675669668747813,-0.24590646117797074,1.727022865820026,1.2228575775927581,0.5374367296822771,1.9206981897674862,0.6119726929158419,-0.5749161557666694,-0.6810498408165214,-1.9897649860349595,-1.110244980656998,-1.1696647834891616,0.09098935543747735,-0.1674752469174187,-1.1686354677162045,0.1196004093524605,0.5021845044295729,1.5167850512333423,-0.070987548309562,0.583855534574618,1.4930102888051204,0.40387589473583957,-1.5590124117892978
99,-2.3760897329582376,-0.8992506738687418,1.1668732737478513,0.366543478646322,1.011493402880624,-0.945875851869076,0.5867351931929063,-0.743314858725328,1.4170277852851962,-0.23678336983698398,-0.06262509425436966,-0.5395964298315942,0.5579775473108789,-0.49182624712633455,-1.9368883764687488,-1.246660478601516,2.014867261987848,0.15184873516885877,1.583750265016699,-1.9784870002863923,-0.5297355454286962,-0.3387760402090068,2.0427189813449322,-0.6626301070054006,0.258674929088966,0.9957302785094917,-0.0348414163326974,-1.226940687437616,-0.06695560170995171,2.700981462772536,-0.010693355332088345,-1.7509546151450925,1.9485038098546215,-0.5796640725423573,0.28630407501081706
100,0.3560028841323819,-0.5699036557253289,-1.4880938073119863,1.0895015574870954,-0.5289388664628686,1.2899462321386244,0.642385430754344,-1.0732811829299063,0.0593793133242491,-0.27560677840463416,-0.06949947719778726,-1.1274621753549305,0.7833958171744027,0.673399442469849,-0.4584179792390555,-0.38429174578181285,-1.8061737561050544,-0.20901951004496758,-0.917945140377924,0.19749055842777918,0.2245724089161876,-0.3262368044144364,0.9455209057806471,-1.398350947295727,1.1146538350216098,-0.5657682897837245,0.529733188385843,0.4110847594889802,-0.8810154489399106,-0.7473779847093045,-0.4578772537485878,-0.3540118036320197,0.06558322606641052,-0.6998115050503408,-0.1742029348263496
101,-0.8619215588435034,0.7773304486985739,3.4076157978193384,-0.34949020346136617,-0.7547925992386231,-0.7025256607757643,0.7724434249453631,-0.41134904943975015,1.4734504570028242,-0.3866917572564245,0.5415002301164614,-0.4662356790963219,1.1923539522941522,-0.9042784238331318,0.8373344544637323,1.4611659823944072,2.472661306884022,0.9451489706283337,-0.5708582162948115,0.5905675536261328,0.4812817643454341,-2.6055253626022474,1.4047893351054788,0.20706624975321195,0.3379260816074901,-1.3527018752339814,0.1646988647521601,1.0109225652812608,-0.270075115311051,0.8160725657991333,0.7598617842803004,0.11039495768240935,-0.5377644557149904,-0.6922257594469903,-0.9577734995727806
102,1.0320873450458101,-0.5395699978084882,0.8495654268075894,-1.3829553771366456,0.05496564067776792,-1.6334037169689166,-0.2759958879700457,-1.9412532851056832,-0.8153176628985446,2.330735333874423,-0.8313211023469652,-0.2181059980809476,-0.35017299955840536,0.5990090837495262,0.040452834359390934,0.2945574965509576,2.152075000763998,0.9498804607274796,-0.40193753888963846,1.2220376722816366,0.926235265547202,1.4564536522761333,-1.0067471748895693,-2.1681752913363432,0.030296908252821872,-1.0410695206341463,0.6837333504626378,0.2807402714636809,-0.3371466637025763,0.05910102190006603,0.7637356996139242,-1.186723710101226,0.1341565179273357,1.4391528471031942,-2.177433292127862
103,-1.2872060861307209,0.6321982268560515,0.08321498106531344,0.20652931186695658,2.5458819505864567,1.0975292782762645,0.5023462120152122,-0.2695307985936722,-1.5533306172974668,2.28429361554191,-0.026328357910936958,0.9166550689846394,-0.9721450234196707,-0.6597294038568973,1.0233949044188901,0.7034922526382066,1.101738709119472,0.5935809071225554,-0.3626542378066002,-0.5669131036971665,-2.253286658033251,-0.2564198322192238,3.4199896966599233,-0.400947764437496,0.9175360527460663,0.6563122320181951,0.0017130255334219233,0.6460330546177702,-1.168922222046615,-0.17233543998894277,-0.3447595650051927,1.5928308926462003,0.2895455592894929,-0.7387685431981884,-0.9054434846029111
104,2.294906633825291,0.3787688631991553,-1.0094328066387814,0.4821967531030053,-0.6381526122124962,-0.7592155201602849,-0.5077330380306724,-1.750558653185147,-0.7892775413283134,1.5528360082602963,-0.15909459300536044,-0.5728607841703671,-1.2658453274191266,0.5883129073638739,-1.0195005735975338,-1.401494600138375,-0.5448417833830623,-2.711295125894946,-1.3312071536917178,0.07734665083770922,0.980781944622867,0.39991928714330544,-1.1563100497964567,-0.5765340340741455,1.0839077588335135,-0.3804973010461116,-1.0230067379587071,0.007879373988642465,-1.6854703829589681,-0.8973589603436597,0.5308300795353154,-0.5488981277406978,0.8077672654746253,0.43886580687041266,-1.6090774407086217
105,-1.599085003137975,0.25656379729339696,-0.8560787801132148,1.3241291729977163,0.8335422024171343,-1.2557075988461277,2.3363538621153026,1.5004796176380837,-0.24060182228005844,0.8725995856407446,0.171381002513459,0.9012241810510089,0.9056510462680577,-0.20430561498710792,-0.08669696341764438,0.6070600444062558,-0.6079835539671943,0.7271473019263247,-0.08170967646953549,-0.2588856740741678,0.6365792134772282,-1.5852099329484073,0.5304555672918089,0.9447833063522592,0.5033364570458828,1.3470985885398021,0.46018726872813503,1.1175810347627444,-0.8090062697969664,-1.311920143830163,-0.24720524770566452,0.27354435740358385,-0.07018444916059403,0.05686227101690614,-0.30308696788557665
106,-1.4053709758195765,0.49840737597930224,-0.507835206263537,-0.37945089131921633,0.2961089825741907,0.7388723427004403,-0.5978032881757038,-0.15771859838431146,0.1996403040154957,-1.0094188888056124,0.12368673128038048,0.3526645394609629,-0.6827749942892414,0.38858821500764057,0.29210378697685413,0.26564466884531635,-0.5606136350275777,-0.9525613285670828,1.074391954085933,1.8200347413250955,-0.3076950596505455,1.4068237361947729,-2.277114706018148,0.6885937260252079,0.040491626174230154,0.605123764443614,-1.4686811548308407,1.3025361563059257,1.3101565568741789,0.5357827477665472,0.7812636567432165,0.9280890945691516,1.6611329626857596,0.06189394011250791,-0.6856519283545213
107,0.8727941373066207,1.3121792901359361,-0.15413688238687295,-0.28536822087718083,-0.2203585890600046,-1.0731071362428466,0.7429453090580048,0.024995285282777377,0.10837708965150421,1.084408104991274,0.11807539230284222,-1.7615616613270364,-1.9535671753002366,-0.8246432195588068,0.485135648546036,1.421212516661442,1.1757445713985422,-0.008311400791243857,-0.10932204067733153,0.6938588026970196,-1.0769222672453045,-1.1215338909860468,-0.7759503260907116,0.4844579126353797,-0.5048946370439836,0.5759478825639417,0.6786332447852875,-1.1624163655804947,-0.8711983930436888,-0.6992778195483319,-0.02385543450710209,0.37940629679797583,0.25198968339729155,-0.23108891112607968,1.3485740460313023
108,-1.0934675351063683,2.183912795431958,0.20983528843469482,-0.47848556037780066,-1.6053218655951653,-0.07656060290635897,-2.5535857510611657,1.4071561120201017,-0.8709792450581125,0.821894064503923,-0.3364470830455767,-1.2477557425399286,1.1097829696413721,0.4846153318691535,-0.7690805444921129,-1.1498653149256421,1.4630905901713658,2.0300074404657065,0.5368903402844516,0.926643553969074,1.4473329649013693,-1.3842835202016421,0.21760948002568933,0.23750141828894367,1.5867247077616058,1.0660967062360829,-1.481064057963952,-1.7671463091981483,-0.6984945884285418,0.5868341032914518,0.5498261035004399,-1.1038440097491906,1.6011375273862074,2.1716133403073834,0.8008351586108188
109,0.2108875240144413,-0.7141534625436007,0.46974937863688604,0.29212466458833225,-0.7010977899031335,1.4244682529919013,-0.08882640229813087,-0.15892926240880284,-1.1324317346425439,1.854605911535587,0.3063305429524289,-0.9167160806419722,0.03793023698404904,-1.6502398661292697,-0.5209419107055848,-0.8847450386711573,0.3294042652900831,0.3422066923551163,0.9209476002744377,-0.20910727730802992,0.8712119709886836,1.5318728867425848,-1.159311951990314,0.13123626092576265,0.15960403818178703,-1.110505087210183,-2.16155852953393,0.5405804956259022,1.6394212363004366,0.780151609060191,1.9530730183670422,0.6035826444235025,0.30534099814791565,0.12484016364434784,-0.16825208721119006
110,0.16109546033867536,-1.3936916300415843,-0.17411733951058808,0.21273520228575366,-0.3985204051343999,0.1543750012378885,-0.4060595135667447,0.31390250290405286,-2.374364843436037,-0.5487699623366047,0.5105939764921491,1.764245343878843,-1.0932888299365433,-0.8254021070582341,1.3102495124759799,0.12429305808226304,-0.11556777041862769,0.3428671715393349,-1.9302922903144786,0.5785417130518095,-1.500410585301819,-0.40983406695956637,0.7924271462995717,0.07860587181020937,-0.8308451170736066,-0.7523514857463904,-0.21246435432335947,0.21357023594924263,-1.6456537428525293,-0.3495457606775776,0.40777205064400757,1.131909625844625,0.016598924901883725,0.4409820877009636,-1.439682704753774
111,-2.149348208117723,0.05422591705558898,-0.8934917801387492,-1.7992609512505657,0.03679652235282789,0.5546590602131647,-0.9007964247470901,0.1723641283524415,-0.439538599259675,-0.9725119463388038,0.20864774329433486,-2.2310796673376005,-1.3192662268208681,-1.662022799687376,1.6506740684931271,-0.6734946917592896,-0.40628183111500465,-0.08803608176415315,0.6765616718313852,0.0055261330556266594,-0.02988087249715238,0.8227110593234112,0.05665326924647953,0.7195331570308041,0.8169787161047934,2.415921798505921,-0.3501442546673061,-0.39228108521191496,-0.22956280719292013,-0.05170775402048741,0.4403438075479567,-1.0605118900412482,1.7464781619166756,0.22968041991224622,0.48793524222416035
112,0.0783154710987458,-1.3383619825759006,1.0451659010725958,0.6695668741582063,0.9031361389950596,-0.38253357832492696,-0.2069148795556158,1.7323805919764357,-0.03761904936013669,-0.6361154855017879,-1.1732499698683023,-0.3788573714543571,-0.8868682243609466,0.10000034507847373,2.5536498263890506,-0.5571617526670216,0.15578071531238838,-1.5121810412075354,1.220162247269367,0.0906602134308698,1.2310551519306723,0.7723086849665739,1.6319823921637118,0.791274159375003,-1.302245015104415,0.8985783528333964,-0.7479025276983644,1.1804456682148796,-1.372947346656189,-0.1344022510090858,2.064833293371512,1.012593073715276,-0.17947132416280426,0.8586738502582183,0.4627810448653415
113,1.4104272483709928,0.2163525027225396,1.399518651975828,-0.3081444931720687,1.2894125400516148,0.2375433765455004,-0.11442814778072452,-1.6195172530716397,-0.46717633276218173,0.21911694432751502,1.6854131886417758,1.6136406039095914,0.46964192466258575,-0.18242561500979726,0.32009489373525096,-0.7750063993575735,1.3168525048210535,0.3169027126793394,-0.7831955164204283,0.3440230900198936,0.008757605843472077,-0.17265382614227023,-0.28796867020476746,-0.6728230402762028,0.1536492995204766,-0.8188168958207546,-0.3548596033440563,0.8001579460127277,-1.4732612530500488,-0.9312264186491895,-1.2553447233463169,-0.8704741946162067,-0.9390911870041408,0.2881933773532231,0.23672483423458446
114,-0.9689513640935868,0.1847118677899726,0.10872566938363575,1.2978090381396103,0.19351732282617,1.0236756895328578,-0.8863988579729563,-0.2825625094345401,-0.009623177666588833,-0.6071880383150244,1.784834278216621,1.7173652577885112,0.6786827550454836,-0.8068692270300433,0.9878267054116029,-0.8529324423147797,2.161712222690351,1.0957839662225195,0.4971592280689058,0.7837319909844395,-0.3434439665945746,1.4741198036724545,-0.16544862606651417,0.21488934971662343,2.717732995289994,1.6141399363974493,0.02908681200996352,-0.2174740607372279,-0.4190411798582112,-1.1088667724876733,0.6338362094092251,1.590375546805111,-0.3994526052745672,-0.293888293361188,0.34493608223431355
115,1.4524269413637245,0.47854221500192107,0.39491830476394224,-0.12150578286465341,-0.3368087098831071,0.243959008740514,-1.440131879020193,-1.6033035587175044,-0.2796487116088677,-1.0539934741589987,0.8420655871418168,0.1106538290362176,0.5847975162431704,0.051428026836102855,0.11077262533638464,-0.933115831491002,0.7195786134893735,-0.5480395588162661,-0.3909564169210164,-0.2126951624738643,1.424062417831154,0.48458037350551514,0.5921409772385526,1.5143380977046703,-0.5672054609059831,1.0625634059698343,1.1499380789631386,1.8969402166921527,1.6147130497675823,-1.796050519086034,0.5800341769233304,1.9383548094039373,0.649201930258476,-0.9677131752129798,0.8392374632455706
116,-1.3282463073644692,-0.08275317078281744,-0.7301764369772603,0.416778375915221,-1.7227810114852748,-0.3496212135434387,0.7357592390567826,-1.4781642607232919,2.0279355739336404,-1.0994483003662452,0.5757444051001793,1.1459499287867358,-0.6441351462149272,0.9778833857362466,0.5172980800435437,1.0730251615419932,0.8732383339284338,1.3136260040845726,-1.3481127938483368,0.04839179710390921,-0.8799738380609692,-0.7826925878709523,-1.6974502325079437,-1.4968822646301014,0.16396861126126897,-0.8758076175029103,0.26391780312535407,0.25173033213796886,-3.064871202452067,0.5567046514472841,0.8831164228881503,-1.1125902366881368,-0.3757632627249369,0.9548577001084547,-0.05457053472786739
117,-0.9285787883095629,-1.3173735058765823,0.9905484456278311,-0.5548013063781726,-1.3426222503893,2.444852483810156,1.197434376427679,-0.9641014683009921,0.9462879808011682,-1.3276096998369298,-0.6802356424852579,-1.3488178690191917,-1.3884646311612971,0.2118034381918651,0.46570405655046637,-1.0783940133389645,0.09362037313536677,0.011012672946347422,0.6575332659277643,0.29413446969768126,-0.6421033843431306,-1.5077076097607451,-0.4685041700070216,0.26571488015957284,-0.5823857371942949,-0.5753150115349551,0.3111618602297021,0.7620882689451925,-2.699917161107144,-0.6629731091863194,0.01209912486148963,0.014374181961057957,0.2629553936712762,-1.3827105507162818,0.08929349060648521
118,-0.46560455102464415,-0.42484201214118916,-0.9921285155305614,-1.806684824958192,0.42745407205678504,-0.48770616707939696,0.5165665168601221,0.040653457448274234,-1.0627100431502834,0.8277222503235614,1.4034104976942718,-0.12698324675896816,0.013394523066312367,-0.8513835057833106,-0.8867014906749401,-0.8015121798793281,-0.08687634945160015,-0.14008196748898397,1.2709682864687302,-0.04301749179804596,0.07099080540782429,1.2442491364648998,-0.5034175662003594,-1.025730462592548,0.012400138136444864,-0.9675446976206024,-1.116928678347096,0.3813812997338613,-0.39054121078077836,-1.7287406761144908,-0.658114166027677,1.0436669780625603,-1.3166647327998116,-0.875446158421083,1.5037759308256657
119,0.03994321758426727,-0.48472852817788376,-0.07044335897009323,0.08045821226214028,-1.5040491069610786,-0.9898411158594073,-0.5813970105679069,1.155466775251521,-2.1811130473990663,0.02084976338183114,-0.23071518431993066,-0.9286859676116526,0.5811044852365014,0.2945095382433244,0.9328798809358049,0.6907636766333063,0.6807202551731004,0.39583307453959127,0.9982342566075862,-0.08265567247969142,-1.3320743440214633,-0.2935730172497631,0.11222947802181658,-0.3261329054789762,-1.8873815667557743,-1.367632370795529,-1.203035972113723,-0.5390081391382943,-0.9093880519430461,-1.4914039685974818,0.7781775440029509,-0.22571970152578427,0.10643766774609957,-0.5975496397973167,-0.8467341096670778
120,0.9143289778652172,1.0367259698693483,0.2816920005228643,-0.015624079285568112,-0.08035707251532544,-1.1386670878135972,-0.9861772111885434,-1.0336205472324322,-0.1751429176908271,0.7155715513124229,0.5116981329258592,-0.5110347332901913,1.9703221315424655,-0.4756775582306597,-0.46225536937756934,-0.021211823632750454,-0.9603935717486126,1.1188075767422578,-1.1234068869183371,0.13123509657749316,1.0051340685460186,-0.9987322554108042,-1.5786231042787127,-1.2043618592529954,0.35994916179718084,0.4900699667615996,0.09854587907173011,1.9282892497757065,2.0202032720479908,-0.5410511399627349,0.2402003328176522,0.6221926264278006,0.01854692363350073,-1.2969292873763056,0.49239116320122006
121,-0.9374018260130588,-0.23477659866742398,-0.1948241879625501,-0.4770704847105443,-0.5068228482942765,1.0843828220259963,1.1441838044305055,1.364957703212704,0.6363281511957116,0.7516738270782611,1.120946785631432,-0.9372383395238519,-0.37546584487389867,-1.385900708146067,-0.2298407038377459,0.36410568130232573,-0.7051333010170214,-0.21904839503482773,2.368155616329529,-0.20840401951000523,0.8973271934842328,-0.8088257915615272,-0.7260924423048294,0.7873709758954667,-0.10681811571318424,0.2554327192161535,1.4057164982945007,0.2868392293258295,-0.8890492278306735,-1.171747393977943,1.163442227647909,0.1286617534654127,-0.1509979153714327,0.47302035395084346,-2.4833994337498937
122,-0.07919412165049543,-1.13602000105016,0.25637290758631487,-0.26101612775973826,-1.1446438139496713,0.5448583939036326,-0.7500440332084777,0.7518418987926699,2.6257649782512407,0.7794788447211597,1.5947471767559693,-2.1950155995355547,0.9065689847362423,-0.026539965592603708,-1.6265732467926466,-0.2990563790945614,0.8960415274266935,0.5578320854402643,-1.7762627661299302,-0.4886048861399,0.4957039085548994,-1.0369914612688824,-0.6714899113833465,1.6463232570895383,-1.1316063476880034,0.23902583863140972,1.1960125154566734,1.7359173310214664,-2.4649978413147378,1.557857758616109,1.9656378506713041,0.6367917032120092,-0.7033173466712614,-1.931488389943664,-0.023019811385548424
123,0.5497685372747403,1.101601215708814,-0.6880248629311702,-0.6224230103056622,0.47581111600929177,-0.10110299422320024,1.0642960194060314,1.9381462209995548,-0.730142436590359,2.2075426966993197,-0.17956300757970994,-0.22545597270486445,-0.48963214432974694,-0.6417507533053859,-0.7868562007673828,0.19918011903599783,0.06617968464750938,1.509449960624066,-1.1019464722050007,0.13600062715209962,-0.6732724302685935,0.1296714669552177,-0.43806856890716256,-0.19415385903958346,-0.7175887210971251,-0.15362373752433361,0.43229661238646877,1.7725900274338362,-0.4801225610550653,-0.8298604594132934,0.10414815975756225,-0.9349493519781459,-0.5710947435970268,1.2566694486187424,-0.32073743704720575
124,-0.23111667021762342,-0.7116546214526842,-0.532168224368411,-1.1614834307268482,-1.0561274127289741,-0.2909366164302186,1.0266519116280675,1.0467830879007227,-0.5766460091000243,1.324981606655513,0.12634837222146886,-0.9613294274644194,1.2108490359117046,-1.1506569704896357,-1.3000215136882163,-0.7274972025670315,2.1750170950768797,0.0035963971124369797,1.2142963832777687,-0.1201544594496219,-0.1965216209851966,0.41938863391990694,0.7462087070937304,-0.3581860614228868,-0.34061832914120815,-0.3995347396723143,0.4013986947790965,-0.6926136701256896,0.6457274161828607,2.2336770630040816,-0.45393287201423427,1.2368665450192984,0.027282995130293017,0.9286233969352661,-0.1715296793352131
125,0.3368537124125047,-1.5423703571910308,-0.22982744997530954,-0.8963016012943843,0.6347129853530138,-0.8123195020422932,1.0208086378978745,0.1395067121808208,1.0623524207302293,1.720000528914876,0.20459263976825928,-0.44559111338188956,0.7772552348260134,1.1623487562869337,1.0801092493283242,0.43002553653509695,-1.6043553597572515,-1.170802655063431,-0.22662832477182304,1.5956820616033598,0.14107809120307363,-0.45715704767494975,-0.5207959902714028,-0.8634228783875151,0.5964547977089053,-1.0584664661084813,1.4613182006030487,1.7884459458714819,-1.9881165385596136,-0.8253541289021384,-0.04791561907072545,0.46285188890517803,-1.1177879967812405,1.5486907929986133,-0.12858691308441197
126,0.8877050700369623,-1.34201863568872,0.016428759814446664,0.2725302150339983,0.49048366922319836,0.5571703521156873,1.010365797083957,1.686257699482091,-0.3785975226472372,0.962394787470752,1.3693522235839286,-0.21192809882180555,2.3425212996443165,-0.4976700259737964,0.5210138834591584,-0.9370517397605648,0.4669969139294882,1.41766965747991,0.5098649032224045,3.0224050462198284,0.1811077609518943,-0.01794803833582096,0.21284942063881723,1.4785787351983095,-0.9979820203013925,0.046847200366554584,-0.7321917237924216,-0.6910560829657793,-0.7763008737791232,-0.38110462926008676,-1.1183590986608785,-1.7291665449667233,-1.4175527319731414,-0.8590130045386926,-0.7158424027471839
127,0.7989491339766631,-0.008487281963506857,-1.3335985125080838,-1.7950778602469533,0.5843968241744255,0.2604327480689471,1.4240802208233676,1.4974507668243893,0.9225196036899272,-1.3049240833039606,-0.3446392535571584,-3.3810294288119676,0.6740432652313435,0.35013416032495387,-0.04051467301650626,0.31892926728739696,1.2083041417521734,0.3083169382091849,-0.9950275762930058,0.902605567300017,-0.1719189282715985,0.30631258873216655,1.2033073654031967,0.6029415925220001,0.6985240804614766,-2.245167026112351,0.4643485887446385,-1.0354751534844437,0.05641207424624845,-0.8322149259077603,2.253720384606031,-1.4832607139766565,1.0603585410716438,-1.7079146179679154,-1.177995019130803
128,-0.24194005600189322,-0.6991795345831154,-0.029480675463691278,-0.7735345669826245,-0.7097066168055283,1.0274822280292708,2.0859097829350497,2.322719228630779,0.020292041580057384,-0.4803909566687679,-2.2141573410070605,2.3349083650322093,-0.8100544157105801,-0.7677485380476564,0.37128091387914075,-1.0377287702422757,-1.151752602845829,1.3636760181733554,-0.1202147547441282,0.38536995794468093,-0.556869635652899,-0.6118974970869401,-1.234691665144568,-1.7350190636601803,-0.1085155840032522,-1.5233153350879713,0.25093725291775953,-0.9774749765983657,0.8127187581319596,0.8428161062573415,-1.1101844071890725,-0.1681496011669388,-0.310519580230974,-1.728075098284207,-0.29629012626218976
129,-0.037365460127228745,-0.16487222917182207,0.36292514907837053,-1.6660307126222165,2.151622066898995,0.5861085565773965,0.41973839591686113,1.8118133465448594,-1.6011526686362867,-0.3617132556034066,0.22399633761590454,0.9347349955434323,-1.077848742839856,1.519111645962871,0.4463735894675783,-1.2972972232008948,0.3612522573761639,1.8023352418482992,0.5595579077361161,1.9033812626553916,-0.5488619471056347,-0.033812667442519234,-2.045313892256722,1.217726075207989,1.2540576697827996,0.03198919767311466,1.4023603207950817,0.4569291276205196,-0.9005080635102604,-2.5712744039004822,0.1918994118464384,1.2475176729575734,-0.9834643211528833,1.1928806055944532,-0.07805103586852138
130,-0.3181124018256037,0.2866485432964412,-0.5925589828606355,1.5931134745448126,-0.28357422789325504,0.07582133057613911,-0.6576776474012309,-1.1966725302853896,0.8939215170554413,-0.31240228730518543,1.7439976626454918,0.10829428428441308,0.07487907597089796,0.45950791426670895,0.9850236919328023,0.6528834348525258,0.7984427588171753,-0.0970893195912211,0.4687307682469087,-0.789871509491834,1.8580899708802987,-2.1138889548697595,-1.0863568885769266,0.3363535634511737,-0.01365578145056629,0.8000872257451287,-0.6043744990370429,-0.5831633521149884,0.9025922395843553,0.28337651672349956,0.0747754039897122,-0.25924049892961415,0.693612049961815,0.8535013079882577,0.3629069303728253
131,-0.33292411171539643,-1.5013038153261802,1.5619798957411566,1.9485076159096648,-1.6133417873362788,-0.4457930262218551,-1.2237155359088958,-2.100891072752641,0.6441616771580784,1.1677564567923335,-0.2568037797988703,0.9222712522948581,0.23034765510907323,0.7967733600863037,1.725434532491589,-1.647509788476368,-0.49582050226989327,0.9553832021693681,1.5255423278332991,-0.61186349748357,1.881261010426688,0.7218398236018705,0.018317272639790553,-0.8461860745102906,1.1546527119223955,1.068810027772671,0.7497246213402403,1.7920117129727164,-0.45004882900695425,-0.25620173505531085,-0.008925140063777164,0.6461418768963568,-1.0439153187387213,-0.0259034363534179,-1.2470372602458746
132,0.21659384387634423,1.200985692863137,1.619079423605403,-2.630387915226117,-1.786188983781707,0.3519535700824451,-0.5211545462981354,-1.128639009137126,-1.1164115116357654,0.7338126821282445,0.5573218998721227,0.4754313564027158,-0.13479053429816654,-0.7641000025637384,0.703597402347727,0.8195189262471401,0.5740566048165587,-0.1876879883470706,-0.40520167430498805,-1.7634949501716712,2.974724634239995,-0.8834321244958343,0.06345626806986973,0.26911499728471866,-0.9230219929355371,-0.7464249575221331,0.5281674530128612,-0.8993242452774559,1.0857127355813916,-0.20056204938232203,-1.4405381108053605,0.48913081239179457,-2.574020788079833,-0.4584779741544946,-0.45747042511874114
133,0.007078053736220443,2.53299715793741,0.389490813718744,2.2654887581390666,-2.3047045888119957,-0.8089793237359802,1.315466865893258,-0.23770286955921585,-0.3085725066256538,0.5422007828817207,-1.452654914517672,0.8467057315973493,-1.2765238422654002,0.8616065902736993,-1.1128286400875784,-0.08382545562517785,0.3036942092444353,-0.3061761993971152,-0.5094669188689784,-0.24782611763582948,1.7514027262437342,-0.6238842045756733,-1.2749497381169281,-0.515621508626515,-0.3313301605560671,0.4294653057368101,-0.2909833670756594,-0.11049042503157497,-0.2980861758944681,0.30491234020745184,0.028030829747893678,1.1169792628445776,-0.1364923137001467,0.1435052268531895,-0.41251348541420374
134,-0.2804818724101885,-0.2383350360574388,0.4801690996643102,-0.7818755126264024,-1.169293645512962,-0.5355299928247518,-2.054925114458124,0.8489814303608104,-0.7217793409418474,0.31503106975310724,-0.13310757139808604,0.1841079829646423,2.1522380894309876,-0.2008603768539735,-1.6850655487212804,0.7134164028410422,-0.4043616463952366,0.5287593570463597,0.22995787024025366,0.15032441106929678,1.3104975617051025,1.1214184446706243,0.1952060939410747,-0.4097012700284272,-1.5669609485142482,-0.35298693814164084,-1.1567781339844456,0.3038362202755314,-0.1825570922253742,0.9437474556704567,-1.0160999485584157,-0.4086479911146374,0.8978867105468736,-0.5072451160951387,-0.5222477046954166
135,-0.1112588424614429,0.8209025039558571,-0.29208217176918866,0.7243433573559865,0.1888123220021285,0.4766671411211018,-1.1431969087028768,0.8169050754194621,1.0221435014506213,2.7572453494419245,-1.3610840083017994,0.2254911994319075,-1.0019174221753104,1.776712172307191,-0.8648835670304299,0.8666581457841853,-0.27973211648117313,0.160978630291041,0.005913580091210362,-0.8011010741207771,-0.09582716004033068,0.7774912997364913,0.7426404374977109,0.6305449115810218,-0.3266313773412247,1.2340087395709523,-0.30633901336957176,-1.0682439523962681,-0.588766579258634,-0.9730769798891094,-1.16543357549978,-0.061508571369593396,-1.1158416939874012,0.12207968925912253,1.4810404434017106
136,0.6568512742197078,1.0999313903310446,-1.7033836051414704,1.025569079753325,-0.07193126338486537,-0.6785621156512737,0.6117462336874633,-0.591852366435465,0.40476996045751257,-0.09776178068775945,-1.0781098508479818,-1.0319451484727085,-0.7309316169966472,0.3154559521197951,-0.2366259994494126,0.8806597729783195,-0.6736591858097406,0.026821132971309416,2.3155632793361605,2.48922189927745,1.7226828297497336,-0.17147561151995158,-1.1204454694966195,-1.8553983038663542,-0.6743588387690895,-0.5683750307004357,-1.4139552082779037,1.526309711301077,-1.992962612209992,-1.4177504605236033,-1.3429053658268533,-1.1880544033894374,-1.1960039906350244,1.417087253695559,-1.2055032146195432
137,-0.017651972207966805,0.7453498417638538,0.9473883864737108,0.5153340952203653,0.2044331242258782,-1.2593894027004822,2.0243888942764348,-0.6237715883209559,0.6652770864203652,-0.253343870861789,0.16413679072173012,-1.2011387761761059,0.9586268603867882,0.006290013155426034,-0.5434204338705648,1.1360009683560843,1.2085483672242283,-0.3890648131367146,0.39317106895774245,-1.299706711419874,0.7036048882476548,-0.7662906985665161,-0.0885509329995921,-1.181293369171811,0.6758364908992297,0.37457192577203746,-1.5432554432141605,1.4219514225657912,1.1519932636588786,-1.862182230991064,0.8776227626723899,1.4165178589051506,-0.6062238862836179,-0.001867337159062006,1.3007574321033173
138,-0.9026165549903148,0.018284289608152864,-0.265841649244749,0.05712695930941273,0.5655956766595556,1.1789800305368583,1.1968134223431515,-0.48774439112579443,-0.09284036408866903,0.537931856519743,0.4305814340270856,0.17122802566176326,-1.0907808451782575,-1.2650865055743459,0.40081077717119407,-0.021084827829991704,0.563019827093081,-0.42888175321063327,-0.5705022184515551,-0.03470369062603275,-1.0715598415412666,0.29600405681706987,0.1987406970971214,1.2200748811407216,-0.808947374011005,0.023938589816366273,-0.09136655776378831,0.6532363025981919,-1.0983504145652068,-0.6894213632353503,0.42332731224743253,-0.6141327303322086,-0.07744130208743945,-0.4352488937136255,0.8876866867846082
139,-0.6487535800657083,-1.5305286858670946,-0.6133715963219104,1.1211879279575183,0.6293099718440751,-0.39979003526444995,-0.8655878733394543,0.6150731911005604,1.1918944136963292,0.05800892669806034,-0.6846778716603782,-0.8739122228330874,0.10387976745890892,1.063062558498593,1.2950096433693692,-0.5321482080212416,0.22222549004879832,1.0006704157604873,0.4368168371984396,-0.13251515538273553,-0.029401773316562397,1.4911260114820792,0.3148197992034811,1.6456836790893465,1.0022199437371024,0.41953001403578516,0.6270567183960694,1.412230957588735,-0.3627600119888478,-0.787129175226411,-0.04629674761197249,0.671081219682843,-1.1783163773769245,-0.056349865567036486,-0.20534302296923618
140,0.8014693491963567,0.8748170478335884,1.08423510997389,-0.56374974090541,-1.1603218295449782,-0.7888681076481865,-0.745571659897656,0.4818573769044931,0.03702712164466525,0.29617160028244033,-0.622738999980371,-0.23974997547654459,-0.9629711907931287,-0.10302715908088247,-0.1305657313646276,-2.040708435736427,-0.6457659521931954,0.455249184735021,-1.2121284424898595,1.3390264452469303,-0.38084409258612545,0.8115780466247273,0.9716225387285083,0.4025306422176322,1.3265628646882226,1.4962267135832368,-0.31257091894757016,-0.047295627646966064,1.6511380653371932,0.1515220102577234,1.6327237909337358,-1.907346525236068,-0.39300484063863794,-0.3195568240491105,0.7753633629559251
141,0.14857814885404358,-0.34540692197927503,0.6519196332568646,-0.013343501384854782,0.9947732447041697,-0.09907013189382785,-1.055996013480912,-1.5097563052659901,0.7057871567154328,0.6960985757326456,-2.1508112684359615,-0.4764713198963731,-0.1384685777710904,1.0873556641184352,0.4204375241463154,0.23938667827328144,1.645813615209059,-0.18628272174848345,0.22848794439481432,1.0725995132344788,-0.08774444319401419,1.1890888284975705,-0.5895905595386897,-1.0026782587269196,0.8166414044613636,0.6003928904254625,-2.0748808010947886,0.06668540602750078,0.30698795036768595,0.6849566170749263,-1.2022736786267336,0.7926935886687824,0.4487168279819719,0.18144415564398092,-1.0408870216025439
142,0.39263419406428984,-0.18845656191127375,-2.2688305587735527,-2.2996000034140374,-0.050792060813221906,0.9379818579838773,-1.0183707837772298,-0.40169775594971874,-0.33142773485284716,0.008991395838341392,-1.799723497807045,1.3878380855795973,-0.09371814807557267,0.9621891383429368,-2.320644249883757,-0.7934179517961277,1.5017439371105634,-0.6667763891507217,-1.2974696772429026,0.48137902046447145,-1.8731092715456183,-1.0416530490293474,2.310385692885601,-0.9200427098655759,0.23402253923158728,-0.08465455913748912,-0.09057270794434126,1.1715228632622354,0.16588127389535365,0.20507155940491867,0.664865996591985,0.5691929011888476,0.5290975840232969,-0.5659199843498554,0.08181814026924973
143,1.2017813725949584,-0.10193408835876071,-0.617507816269574,0.4822932654472395,-1.3083920500795778,-1.9717143480715928,-0.4142197896376874,-0.271947806896068,-0.8402463220560316,0.11140348317366654,-0.1686151346235396,-0.17800350580839505,2.578792030282646,-0.7851879401602854,-0.5469438165543131,0.876910865677393,-0.3176415068942757,0.6297126551149544,-0.569985203078533,-1.4656328747489495,0.15284379071581985,-0.8400275841464546,0.8808078816921597,0.6931153549073261,-1.3168954502612253,-0.8418580150849353,-1.483805066149465,-1.350025694495595,1.7465419475045825,-0.3654262874135028,-2.608268351952218,-0.41664135166569954,0.751074460796608,-0.41303704536920555,0.2407255389832531
144,0.17720034979666224,-0.3324598848101795,-0.22861467133402263,-0.1437816665729809,-0.021199374706514933,0.13430329043514094,0.5882038811048066,-0.505224957448977,-1.3354547358483864,-1.6375716372846705,-0.7582361721671086,-0.4371663016675025,-2.249094825266394,0.1291117285168163,-0.2376616155637734,1.334099921807977,0.7717223607938083,0.4523476186494446,-0.41855211450156155,0.20411271487727622,-0.533100408380412,0.30465757746410405,-0.7798468709013274,-0.8235576111913229,1.0175841902419518,2.0125217780389715,1.321029468017957,-0.25230264376614614,0.6234912521876611,0.2723696676455957,0.252554461633562,0.22770607650942276,-0.0083020014073795,1.4201613787092273,-0.23535628765590613
145,-1.421450539592337,-0.5993841249379785,1.755811605738359,-1.3799030102296335,-0.15620029365306967,0.21431261269472743,0.9150866598404491,0.6858637305816352,-2.0445066705242976,-0.44607016370564917,-0.41835700456046937,-1.0669962316150867,-0.656906841487169,-1.3160035117817968,0.5579469585458382,-2.063147571043908,0.09265631767134024,1.3896880109508472,0.8253638184698867,-0.011886444826515193,-0.16442631362291124,1.1282716105789647,-0.5278351790360588,0.23110340325695167,0.7848522626031953,0.07310830314274955,-1.033197253341582,0.046224764996895436,0.15127770661648668,-0.024306820774096734,-0.24366327219283787,-0.468367065515638,1.8036428890332854,1.5984441853744082,-0.22013232120117748
146,-0.3234476516019337,-0.05468585252470743,1.1923033648182644,0.7126636407312839,-0.14961166218629576,0.34429688467576014,0.7236406581276927,-0.11303866360423044,0.7229071824512731,0.5951571199302651,1.633564216005191,0.06266966603107206,0.8218544220274865,0.23725445258808467,1.3902413776431548,-0.29077790215630345,0.39769006378046073,-1.0530320753200524,-1.8465852350697767,1.176215093128488,1.1113632142442045,-1.5420231439879513,-0.8462283136518326,-0.1617349266122825,-0.3058755662097667,-0.24335028424597374,-1.0073525049442724,-0.55070556585904,-0.935354801494013,-0.0681693683195164,1.6385205091033113,0.686556248050967,-1.0664672951952232,-0.5573043362475929,-0.5080363936818723
147,-2.3094646355245314,-0.7242314625603773,-0.03448743553333063,1.0013733071969309,-1.435435599751277,-0.40435946822653696,-0.2009471687507781,1.1589166677158098,-0.5953404028345457,-1.7649478789561646,-0.6548219543472696,1.7515363629685843,-1.933208648943063,-0.6022770675928493,0.6280877908397766,1.6686087765271207,0.8848373688477464,0.14099307058504681,1.1124062378475572,-1.6956090010543923,1.532325845127079,-1.5875047218353677,1.354099948928666,0.268611469673988,0.6701937931648735,-0.8132090629730206,-0.7565882929912163,-0.7391734379264763,-0.24580170902724127,-0.8815074409536998,-0.6489016531343468,0.7203623939302048,0.8022704875633798,-0.36462019349719066,1.638115796363547
148,0.5752261597086947,-0.8532083467257054,-1.1848432391052335,1.2777480484282933,0.1930639039081141,-0.4877566382858565,2.2209941704011067,0.5946034755611767,1.0090707608914635,-0.418126066916548,0.06340933906977002,0.5769466713735962,-0.04009644936078942,2.024988750010215,-0.6543036962213605,0.26013396292047647,0.9157170451248539,-0.8885676907644712,-0.8838198448277489,1.9247062377817885,-0.949435832040337,-0.2917507562807999,0.09557764077339623,-0.16157096330539955,0.2836236221266749,2.3151326948925517,-0.10990021346739241,-0.5271880488524147,0.05064207012423877,0.8968075539540927,-0.0388494954828588,0.6828980223877982,-1.6020361673767762,-1.0803646128278224,0.9570256583019651
149,0.5405535429294024,0.8560310602952655,-1.3706558669267552,-0.23930963505059585,0.019635472331697455,-0.35499411926749147,0.8337158772259861,0.3334649684147825,-0.3233201482076898,-0.04140002928069689,0.8732202683578226,1.0112418045992633,0.17923996897694713,-0.24772090296080376,-0.14735331639900767,-0.22355047887226515,-0.9517415382185169,-0.5523330388477785,0.7471007340389242,0.10009312983754977,-0.3124163361219205,0.16243805838842967,-0.2664491114133449,-0.8388254511585778,0.12292009448285597,0.5687561774901336,1.0870450015407238,-1.1700975265267213,-0.6517008742951834,0.45354938731641065,-1.8535922763906953,-0.1507441951396861,1.3038766521303689,-0.3211727419057316,-0.8853013089353153
150,0.7827133237216066,1.0357343776853136,-2.0911761366755317,-0.1112185731831498,-2.133642617623624,-0.541161867232327,1.617200373565036,-2.037060652229794,0.8561346684444667,0.8649112528007938,0.4425060354829101,2.622855032280841,1.4282707012959774,1.6406689862746453,-0.5874592680837321,0.5150018322504647,0.33333119944207734,-1.6889668841194032,0.07249421480313344,0.7019889323118529,-2.9615168594814696,-1.1752356250594065,0.6903548535384797,1.025905537585697,-0.8568677649648974,0.6964717263678407,-0.6655711128563895,1.145863170703037,-1.163198811849174,-0.372978043024887,0.5093664485852645,-1.214562521197309,1.5342217574982298,0.02675708710404052,-0.6660889972615612
151,-1.3051766888231353,-0.03874733401855645,-1.6725892194360952,2.7994106818500235,-0.09156483285947764,-0.46115681028455424,0.0662725362329146,1.645463625541171,-0.5564848559694697,1.6163644604231637,-0.7743047631106437,0.6305414956636426,0.6080363902413376,-0.4173351727348662,-1.2393688247173216,-0.704513963171889,-1.76506444700385,0.5003896309917588,-2.2808897409491515,-1.1264260735624367,-0.17174952442900168,-1.077337888521241,0.2775500364861025,-1.1485423781171316,-0.37089774668636805,-1.7939784783113417,-0.8941989710025752,-0.06570827204075834,-0.7948299776416538,1.1122448807443401,-0.09308171538949112,0.33271655900140923,0.6750586098041287,-0.10808053527546747,0.6839083330395082
152,0.0441133617271254,-0.9800077981857057,-0.7414783156126148,-0.5691405145286106,-0.49987286427212446,-1.0605612972538783,-0.8836903462789744,-0.1167487450972786,1.3698535946820416,-0.7413291052187061,0.3528957204181609,-0.9886382736057531,1.276141002221832,-1.322815141198269,-0.39418698838034083,0.1336786543753107,-0.8317332665321753,-0.2982620840313141,-1.0467077585716604,-0.5529954512329086,0.2954980177715406,-0.540247294912808,-0.2484681820287819,-0.7737974537632272,0.8430268076144952,0.2224035433218189,-0.20296185051305082,-0.9426576767115892,-0.48593551836377025,-0.8693638531007637,0.5602568196291289,1.348179481642701,1.2744689382460352,1.076822750921128,1.257069615360451
153,0.6641114817211684,-0.9412582228150939,0.46985004755783827,0.092790382537265,-1.630822627545874,-0.22315384021326914,0.20596215995331257,0.8087348208894959,-1.3799253203429247,0.026716895315786523,1.2838168552724796,-0.525378146224573,-0.3359184520918117,0.34224472793326993,2.4283123278118093,0.8869559002776722,-0.5478298058737874,0.9370743469301029,1.2709686844933705,-0.30444931749435117,0.7433715644608758,-0.7229278364486643,1.1941786733890276,-2.737910947557247,-0.6840429181574521,-0.6465391408048136,0.3510805577445752,0.530030119124574,0.22507223820543878,-1.4266161506994113,1.3622372886083614,-0.4027425787639794,-0.7065825567588296,0.615636147351299,-1.6534564641225702
154,-0.04048761429267529,-0.11152996932238846,-0.011984870954003284,-1.6197594920048501,-0.880234141750722,0.96945567468381,-0.17274390384058616,0.3662469278997931,-0.5162717984665517,-0.09496588463191989,0.8082827052895368,0.5049986983539034,-1.0662353926182329,0.10733274806781948,-0.06453619707854469,-0.9620713431550992,-1.2086418222537134,-1.0065424275237267,0.7517436856890996,-0.16082227460696433,0.37471723699796566,-0.2546330272290082,-0.4296334397549873,-0.6293575935077957,-1.8368624910820661,0.8029485503603755,-1.4487222461764941,-1.315932765989968,-0.19519582861607146,-0.3663888448812821,0.5213819285501938,0.5686083585676801,0.004856481525337052,-0.16956795611643588,0.8410168256207918
155,-0.9408846072217171,1.3927900606703945,-1.003240639477841,-0.9727554610581528,0.6789661607838064,-0.2529215481067841,0.6746519671813525,-2.1085248245149013,-0.8145299199612875,0.47139372594015494,-0.4519502611383004,-0.3221180717500315,1.2375876609858218,0.4901182078598285,-0.6517770121363932,-1.0121711216494067,-0.5878526072833244,-0.835278692096161,0.51172447999141,-0.8215273164213867,0.23512043714502368,-0.9443927540026502,1.433379103500522,0.04036024978732262,-0.07856855352963008,0.02226847320989576,-0.21269128046573385,1.1965074745236983,-1.089095724205711,-0.2283184999925357,-0.3996718607819578,1.4337944944971615,-1.0033028249190534,1.1370854462673905,-1.2902063311505145
156,-0.3050575666363109,1.2377943350741096,-0.2701686921239188,-0.18115595047177777,1.0801385603079923,0.23772489305774086,0.24879293248712597,-0.18464008192579928,0.30466825578926315,-0.24185796465166365,1.0596397753160967,1.3764333137499312,-1.322707261173309,-1.509312969016356,0.31365216999805784,1.4398789327418244,-0.5809110997782668,-1.3095013433303875,0.1846611597025093,1.6423706309532962,1.5525245793750446,0.3079956265976928,0.7541862191365192,-0.5336390840857317,0.015958571018542138,-0.06917158810864557,-0.5727878770610978,1.0013306857131477,-0.7144155382199328,-1.1195193435495445,0.5698413804664577,1.028773148211242,0.28691722354217597,0.36663798480229914,-0.5524749599382165
157,-0.03422277830675242,-0.28792174731719244,-0.0799253678401863,-0.5311474149666469,0.8688879983610696,1.0220955453794742,0.7060328464858282,-0.7572206088543145,-0.026192006248403583,0.056854740279981573,-1.231649664752421,0.0012252999949052385,0.45507798291013846,-0.4096903214392653,1.2357737815900118,0.6995484054769802,-0.5215037924902883,0.7941277711459332,1.4956415924764828,1.127323810493811,-0.011779332103215778,-0.7323737842489524,-0.09702763898468415,-0.0058547397294820185,1.0248370767250943,1.07800099579672,-0.8025660338716452,0.6981305785072761,-0.46100125094964367,-0.10785042842806478,0.13596381617645623,-0.9824130798954365,0.534559883790764,0.5874956047089095,-1.1166119165756616
158,0.8472271180433905,1.8442806267896295,0.09303227331985643,0.04736838823777405,-0.02169529244146357,1.948827243177907,0.03402966717826653,0.38503752868932395,-1.169396802503222,-0.3125304346749291,-1.1541973526248588,2.265597192461965,0.48159228078422184,1.5499418373970415,1.7095440515583014,-1.3163349691916373,-0.397928900033904,0.07321648060459243,1.7347093382789265,-0.372870975142868,-0.007417312093196573,-0.357954477283882,0.09564405545950819,0.8123281315081137,0.9902462243083574,-0.2722591234980849,-0.09896575906100066,0.5524513460079278,-0.9585712361945564,-1.0708401145396689,-0.7952623225100753,-0.2531745275823316,0.07935480898666566,-1.479515052341198,1.8401548527955263
159,0.20798982243335454,0.3709823037101972,1.4784295084194627,1.6874415465770176,2.1345840792910096,0.7799749918626165,-0.6372234722262904,0.701911806716356,2.1877992373251667,-1.1211811815218762,-0.9811859160819093,-1.236355022048182,-0.48556667465324943,-0.533508349142205,-2.0599886897002464,-1.3021330025764544,0.7193485008544616,-1.117333706077031,0.11999765368935181,-0.8388824957032203,0.396686796351241,0.15109574056747255,0.3994624267444205,0.9749549398768876,-0.970277901771028,-1.7208674026115485,-1.0452979605950792,-0.6798990516924249,-0.4605395414454147,0.9291023209073135,-1.6393718398884178,0.9543272228541957,-0.082417491630279,-0.25613494405546233,-1.7701091639419846
160,0.024000226174275503,0.2933441167150458,1.7797863579037323,-0.7374865390928099,-2.131252463027427,1.8778265527359237,0.6523257464410865,-0.6746182266214001,-0.5467037045914296,0.15746963833714983,-0.8020917652433679,1.3860421674869294,0.622134353982446,-3.112468120259715,0.003296666729016993,0.8370031057603363,0.3884953281187158,0.2594981997493367,-0.7133756691042976,-0.05704418993433609,-1.15501643643477,-0.4643391562174887,0.02938807667187315,0.6274570671873372,-0.16044865233914032,0.6160199384575119,-0.5277167703568075,-1.8176035944334683,0.4573795164316292,-0.27585059787847926,1.8038766409594764,-0.42920941500586146,-0.22795846594415692,1.438450634717683,-0.6693076061089418
161,-0.24388866282132518,-0.3391891843886772,-0.5906588962942615,1.17774619742143,0.10993230825221739,0.7470141290319199,0.0006771687014167449,-1.0844730883275806,-1.0521082948433742,0.41474644357123525,0.111894690477816,-0.6558584334874329,1.0062632911860696,-0.6472286881625628,1.0036992893534398,-1.8800919538436422,1.362214874827712,-0.43640493546612197,1.9771692128211982,0.4066629198210928,1.644517328170736,-0.45309762393075764,-0.5044354319808211,1.8691648497059474,-0.9242517575172964,-0.7150593900573109,2.167337372526271,0.0072083535469713725,-2.0300567825606906,0.6303727106765229,0.7326307103998004,2.253709501945429,0.23300868034912064,1.1286331802955953,-0.5623205370483428
162,-2.0061114622519063,-0.7074568905694557,0.1324272506035156,0.029136138934423572,0.042104672920166064,0.4058786715939766,-1.7192391114300583,-0.5337022390317385,-0.6149068557337447,1.3882096419288872,-1.7394748297152878,-1.6854686468701539,0.04339276321197181,-0.666777122425924,0.7093071659243517,-2.045504791688899,1.2565281694387753,-1.5230602692233381,0.2573656164510437,1.632506632113411,1.1102046922828799,-1.0204282521473296,-1.0709572253398232,1.4670462003442932,-1.159057182650826,1.8773163604511012,-0.39870326767395126,-0.6129887418084985,0.4771186012918545,1.518514797819074,-0.5648526236915692,-0.12118429903658445,-0.866808161310652,-1.2558689769574598,1.327046368930408
163,-1.6646218742204508,-0.13947516515603026,-0.7807618618238191,1.2960058140895767,-1.3763087520468702,-1.3779047020966513,0.6300006473115162,0.6449680130103228,0.4451342053389433,-0.061926117678929506,-0.4154244892019864,1.4237878364794905,0.19756315292957796,0.002572339988289364,-0.6108042350596596,1.5740738743765066,-0.7242925804485209,1.0706321951599571,-1.705005782109037,-2.584173301891212,1.140189589877914,0.6075062343019605,0.13599725806714777,0.2846645146898963,0.7228073420682068,-0.657511091870472,-0.7844055386801163,-0.8499785384510934,0.7422236650066023,1.2493862586149782,-0.4799643980355657,0.048924632788588926,-0.36764041233560263,0.6415624262139287,-0.8094473913659911
164,-1.426231646690566,-0.8232226335860416,-1.70406919183206,-1.3722211370467141,1.0106577961818501,0.27776006499824163,-1.0678380677376837,-0.5212334771187794,-0.5607831925310237,0.3041481204231779,0.16058446052643657,-0.31803116086651745,1.5958899169454297,-1.497086368084099,-0.07626761773695007,-0.7040183482536568,0.16562047866351362,0.18194407227367168,0.008715676756747661,0.7042815597819725,0.36820202971407734,-1.01699793157015,-0.14730517127263024,0.6221617473883471,0.023981138315722628,-0.4303587115240251,0.5004147991337685,-0.36588482248251114,-1.0068215521331347,-1.035576786707494,-0.2403968899216905,2.7814450091343024,1.825586830168734,0.546458123211881,-2.1098957355182293
165,0.30600265155170786,-0.46207596152850267,0.2035609669774561,1.451988158073556,-1.1690204680650205,2.2402918810954437,0.7326225248140045,-0.6831393452513815,0.45669431029433427,-1.3989664423356623,0.24476179537641113,0.08750555417466196,-0.7139362740652622,0.5803775910712404,0.03687598626511407,-0.6420929442047638,-0.5636952649194218,0.88232078222125,0.10702347155100606,-0.43686661825009493,0.7156719360572983,-1.4411228178388698,0.5169601476588381,-0.8661532884359855,-0.13372432958269787,-0.12099569697860613,-1.669519100122698,-0.7166123599040323,1.161455226582791,-1.3926462049524415,0.16269427999733005,-1.7777923245788696,-2.068876868720481,-1.2115567435423777,0.342532376057533
166,0.1138439214842286,-0.34732821298581285,1.503064895795211,-1.1400088392701853,0.4818244710993452,0.7649637085780847,0.10336941243910086,2.2206160037388156,-0.39929472365313584,-0.3974663359410378,-0.012222442136007313,-0.5563576140195476,-0.28039871511992126,-2.339425839061774,0.009147037640887937,-0.9434985002854649,1.0968572217593069,0.8910308156827367,1.4304922358512433,0.23649707835635103,-0.6207578805077554,-1.5220710845871297,-0.7697568327904961,0.7163625552564663,-1.8582641215019902,-1.1934908888637874,-1.5700885901644146,0.5072525892890615,2.0391316477163577,0.4311725507667671,0.3477436297772457,0.9390641016431245,-1.883253091398548,1.7612598415654517,1.9038370854861437
167,-0.2093157950702773,-1.3721204415958002,0.9541468320177552,-1.1179850831069598,-1.3489552864274303,-0.8729957169700221,0.3093500999475636,1.237674284608631,0.23535588926612358,-0.5110754846257086,-0.11454544551651048,-0.24072261685819496,0.34573241951982986,-1.0317256104380914,-1.695808618926317,0.2886905950416115,0.6493983475194526,1.8800184724797384,0.4186590426186041,1.4758026327676814,0.44143395843397826,-1.2821797521930995,0.4804635426707869,-0.24872024161897924,-0.3883403546134209,-0.16960766606426547,0.8986708587368312,0.7605164299266501,-2.437156324411525,-1.1192095552535786,0.1652043141805681,0.5650891704775,1.319569537787923,0.11505506194083348,-1.4755496181665375
168,0.2250214846981453,-0.24001610639432666,1.133567658360354,-0.8778131701548744,-1.7448099546540132,-1.8346296282946168,0.10654732022592654,-0.16457073868079014,0.46062845722573065,1.821625055862917,0.04030500067373583,-0.06121623887477057,0.6566410003546641,0.20562308820764172,-0.0639333569733168,1.1344969916538665,0.38303612790476615,1.161370366844588,-1.432446277159349,-0.47163500912090545,-2.5204668072022134,-1.2238600930785817,-2.5647421908054064,-0.4184304569525459,-0.7689553125912335,-0.5950919085783122,-0.4843389871592072,0.29980525272696223,1.036044738808537,0.9552642030168782,-0.4397929294393425,-2.497221753012535,-0.8130057089835199,0.2619249653560919,2.1935672751814512
169,-0.17796810954198974,1.9500885695368886,0.3620570859572032,-0.21374683544907402,-0.2002148777863025,0.14517588428517497,2.4618725608619587,-0.1803095244935453,-0.6527156607217708,-0.2230654840063071,-1.7703727144369414,0.5642515170004017,1.4466645104535751,0.8133542880625121,-0.772999085937362,1.5100185307638672,0.22747060446946424,0.3275141912656386,-1.738065414985175,0.01683671962713091,1.7570604960279033,0.42050352590661433,0.39711710171380266,0.5274934164559245,-0.6562017989006816,-0.5623429541622961,-0.3367609341386871,-0.23925406854356593,-0.16613009425538972,-0.8821806055216546,-0.3277210909978387,0.8164135466443752,0.20181500480113412,0.2678300595067902,-1.2606463596279247
170,1.2900013676730129,0.13218031006404676,-0.966655810252402,2.829122597765422,0.8000504782427769,2.285531918283942,-0.9966419274646077,0.500042034164438,1.5755196980963917,3.1826943754561716,0.07633372730580533,2.6977939121518064,0.8454096962815997,0.7817825281379087,-1.67149236563822,0.4200082942882235,0.4159746324335211,-0.1031044658071576,0.39406562834110914,0.8451256148406858,-0.32415863064682043,1.4412815209680603,0.9646752173046642,0.7072631319940212,-0.5276563843511565,0.17606537025826863,1.4374341643077582,-1.089472016195808,-0.16919896598198694,-1.7186225788942207,-2.649413405724801,0.651629712946681,2.4744637378511025,0.482306131394597,0.5629509312584411
171,-0.29200295966636874,0.6441831115724986,0.10095411700638808,0.753243819817135,-0.5161625398111443,0.25395987676686016,1.9553053163637437,-2.378820187178658,1.691401360751875,1.0325836063106633,-0.025668647925195957,-1.8074997065581293,0.7460396816404027,0.5327877480458288,-0.40939226440062615,0.5191011120199416,-0.6347115986663731,0.7895233557328026,-0.36881873999540365,-0.2194631217878003,-1.212632381207611,0.2948080825738384,0.7268823995673799,2.2804073198422574,-0.6766761808960304,0.10140696928069401,-0.12259162591509531,-0.2398536502215706,2.713159440528381,0.1888504875783776,-1.5701143625799943,-0.6752466062690836,1.323753998066681,-1.2754999747924407,0.4543034006578703
